,TIMESTAMP,BVP,ACC_X,ACC_Y,ACC_Z,TEMP,EDA,HR,IBI,Sleep_Stage
0,15000.0,-24.41,-30.0,4.0,58.0,32.27,0.275453,66.55,0.859375,0
1,15000.015625,-26.1,-30.0,4.0,58.0,32.27,0.275453,66.55,0.859375,0
2,15000.03125,-28.38,-31.0,3.0,57.0,32.27,0.275453,66.55,0.859375,0
3,15000.046875,-31.37,-31.0,3.0,57.0,32.27,0.275453,66.55,0.859375,0
4,15000.0625,-34.95,-31.0,4.0,58.0,32.27,0.275453,66.55,0.859375,0
5,15000.078125,-38.67,-31.0,4.0,58.0,32.27,0.275453,66.55,0.859375,0
6,15000.09375,-41.76,-30.0,3.0,57.0,32.27,0.275453,66.55,0.859375,0
7,15000.109375,-43.16,-30.0,3.0,57.0,32.27,0.275453,66.55,0.90625,0
8,15000.125,-41.86,-30.0,4.0,57.0,32.27,0.275453,66.55,0.90625,0
9,15000.140625,-37.24,-30.0,4.0,57.0,32.27,0.275453,66.55,0.90625,0
10,15000.15625,-29.41,-31.0,4.0,58.0,32.27,0.275453,66.55,0.90625,0
11,15000.171875,-19.31,-31.0,4.0,58.0,32.27,0.275453,66.55,0.90625,0
12,15000.1875,-8.38,-31.0,3.0,58.0,32.27,0.275453,66.55,0.90625,0
13,15000.203125,1.86,-31.0,3.0,58.0,32.27,0.275453,66.55,0.90625,0
14,15000.21875,10.29,-31.0,4.0,57.0,32.27,0.275453,66.55,0.90625,0
15,15000.234375,16.52,-31.0,4.0,57.0,32.27,0.275453,66.55,0.90625,0
16,15000.25,20.85,-30.0,3.0,56.0,32.27,0.274172,66.55,0.90625,0
17,15000.265625,23.97,-30.0,3.0,56.0,32.27,0.274172,66.55,0.90625,0
18,15000.28125,26.62,-32.0,3.0,57.0,32.27,0.274172,66.55,0.90625,0
19,15000.296875,29.27,-32.0,3.0,57.0,32.27,0.274172,66.55,0.90625,0
20,15000.3125,32.07,-30.0,4.0,58.0,32.27,0.274172,66.55,0.90625,0
21,15000.328125,34.88,-30.0,4.0,58.0,32.27,0.274172,66.55,0.90625,0
22,15000.34375,37.41,-30.0,3.0,57.0,32.27,0.274172,66.55,0.90625,0
23,15000.359375,39.35,-30.0,3.0,57.0,32.27,0.274172,66.55,0.90625,0
24,15000.375,40.47,-30.0,4.0,57.0,32.27,0.274172,66.55,0.90625,0
25,15000.390625,40.58,-30.0,4.0,57.0,32.27,0.274172,66.55,0.90625,0
26,15000.40625,39.61,-30.0,4.0,57.0,32.27,0.274172,66.55,0.90625,0
27,15000.421875,37.61,-30.0,4.0,57.0,32.27,0.274172,66.55,0.90625,0
28,15000.4375,34.75,-30.0,4.0,57.0,32.27,0.274172,66.55,0.90625,0
29,15000.453125,31.42,-30.0,4.0,57.0,32.27,0.274172,66.55,0.90625,0
30,15000.46875,28.04,-31.0,3.0,58.0,32.27,0.274172,66.55,0.90625,0
31,15000.484375,25.01,-31.0,3.0,58.0,32.27,0.274172,66.55,0.90625,0
32,15000.5,22.61,-30.0,4.0,58.0,32.27,0.272891,66.55,0.90625,0
33,15000.515625,20.88,-30.0,4.0,58.0,32.27,0.272891,66.55,0.90625,0
34,15000.53125,19.7,-30.0,4.0,57.0,32.27,0.272891,66.55,0.90625,0
35,15000.546875,18.8,-30.0,4.0,57.0,32.27,0.272891,66.55,0.90625,0
36,15000.5625,17.91,-30.0,4.0,57.0,32.27,0.272891,66.55,0.90625,0
37,15000.578125,16.83,-30.0,4.0,57.0,32.27,0.272891,66.55,0.90625,0
38,15000.59375,15.49,-30.0,4.0,57.0,32.27,0.272891,66.55,0.90625,0
39,15000.609375,13.89,-30.0,4.0,57.0,32.27,0.272891,66.55,0.90625,0
40,15000.625,12.15,-31.0,3.0,57.0,32.27,0.272891,66.55,0.90625,0
41,15000.640625,10.38,-31.0,3.0,57.0,32.27,0.272891,66.55,0.90625,0
42,15000.65625,8.7,-31.0,3.0,58.0,32.27,0.272891,66.55,0.90625,0
43,15000.671875,7.21,-31.0,3.0,58.0,32.27,0.272891,66.55,0.90625,0
44,15000.6875,5.96,-30.0,3.0,58.0,32.27,0.272891,66.55,0.90625,0
45,15000.703125,4.93,-30.0,3.0,58.0,32.27,0.272891,66.55,0.90625,0
46,15000.71875,4.04,-31.0,4.0,58.0,32.27,0.272891,66.55,0.90625,0
47,15000.734375,3.23,-31.0,4.0,58.0,32.27,0.272891,66.55,0.90625,0
48,15000.75,2.44,-30.0,4.0,57.0,32.27,0.272891,66.55,0.90625,0
49,15000.765625,1.64,-30.0,4.0,57.0,32.27,0.272891,66.55,0.90625,0
50,15000.78125,0.86,-31.0,3.0,58.0,32.27,0.272891,66.55,0.90625,0
51,15000.796875,0.11,-31.0,3.0,58.0,32.27,0.272891,66.55,0.90625,0
52,15000.8125,-0.59,-31.0,3.0,57.0,32.27,0.272891,66.55,0.90625,0
53,15000.828125,-1.25,-31.0,3.0,57.0,32.27,0.272891,66.55,0.90625,0
54,15000.84375,-1.85,-31.0,3.0,57.0,32.27,0.272891,66.55,0.90625,0
55,15000.859375,-2.46,-31.0,3.0,57.0,32.27,0.272891,66.55,0.90625,0
56,15000.875,-3.06,-30.0,4.0,57.0,32.27,0.272891,66.55,0.90625,0
57,15000.890625,-3.69,-30.0,4.0,57.0,32.27,0.272891,66.55,0.90625,0
58,15000.90625,-4.28,-31.0,3.0,58.0,32.27,0.272891,66.55,0.90625,0
59,15000.921875,-4.77,-31.0,3.0,58.0,32.27,0.272891,66.55,0.90625,0
60,15000.9375,-5.05,-30.0,3.0,57.0,32.27,0.272891,66.55,0.90625,0
61,15000.953125,-5.08,-30.0,3.0,57.0,32.27,0.272891,66.55,0.90625,0
62,15000.96875,-4.96,-31.0,4.0,58.0,32.27,0.272891,66.55,0.90625,0
63,15000.984375,-4.87,-31.0,4.0,58.0,32.27,0.272891,66.55,0.90625,0
64,15001.0,-5.13,-30.0,3.0,58.0,32.29,0.271609,66.37,0.90625,0
65,15001.015625,-5.95,-30.0,3.0,58.0,32.29,0.271609,66.37,0.90625,0
66,15001.03125,-7.37,-31.0,3.0,57.0,32.29,0.271609,66.37,0.90625,0
67,15001.046875,-9.21,-31.0,3.0,57.0,32.29,0.271609,66.37,0.90625,0
68,15001.0625,-11.11,-31.0,3.0,57.0,32.29,0.271609,66.37,0.90625,0
69,15001.078125,-12.7,-31.0,3.0,57.0,32.29,0.271609,66.37,0.90625,0
70,15001.09375,-13.78,-31.0,4.0,57.0,32.29,0.271609,66.37,0.90625,0
71,15001.109375,-14.45,-31.0,4.0,57.0,32.29,0.271609,66.37,0.90625,0
72,15001.125,-14.98,-31.0,4.0,58.0,32.29,0.271609,66.37,0.90625,0
73,15001.140625,-15.78,-31.0,4.0,58.0,32.29,0.271609,66.37,0.90625,0
74,15001.15625,-17.07,-31.0,3.0,57.0,32.29,0.271609,66.37,0.90625,0
75,15001.171875,-18.89,-31.0,3.0,57.0,32.29,0.271609,66.37,0.90625,0
76,15001.1875,-21.02,-30.0,3.0,57.0,32.29,0.271609,66.37,0.90625,0
77,15001.203125,-23.15,-30.0,3.0,57.0,32.29,0.271609,66.37,0.90625,0
78,15001.21875,-24.91,-31.0,4.0,57.0,32.29,0.271609,66.37,0.90625,0
79,15001.234375,-26.13,-31.0,4.0,57.0,32.29,0.271609,66.37,0.90625,0
80,15001.25,-26.85,-31.0,3.0,58.0,32.29,0.271609,66.37,0.90625,0
81,15001.265625,-27.22,-31.0,3.0,58.0,32.29,0.271609,66.37,0.90625,0
82,15001.28125,-27.64,-31.0,3.0,57.0,32.29,0.271609,66.37,0.90625,0
83,15001.296875,-28.46,-31.0,3.0,57.0,32.29,0.271609,66.37,0.90625,0
84,15001.3125,-30.0,-31.0,4.0,57.0,32.29,0.271609,66.37,0.90625,0
85,15001.328125,-32.34,-31.0,4.0,57.0,32.29,0.271609,66.37,0.90625,0
86,15001.34375,-35.26,-31.0,3.0,57.0,32.29,0.271609,66.37,0.90625,0
87,15001.359375,-38.07,-31.0,3.0,57.0,32.29,0.271609,66.37,0.90625,0
88,15001.375,-39.79,-31.0,4.0,57.0,32.29,0.271609,66.37,0.90625,0
89,15001.390625,-39.26,-31.0,4.0,57.0,32.29,0.271609,66.37,0.90625,0
90,15001.40625,-35.64,-31.0,3.0,57.0,32.29,0.271609,66.37,0.90625,0
91,15001.421875,-28.73,-31.0,3.0,57.0,32.29,0.271609,66.37,0.90625,0
92,15001.4375,-19.13,-31.0,4.0,57.0,32.29,0.271609,66.37,0.90625,0
93,15001.453125,-8.15,-31.0,4.0,57.0,32.29,0.271609,66.37,0.90625,0
94,15001.46875,2.68,-31.0,3.0,57.0,32.29,0.271609,66.37,0.90625,0
95,15001.484375,12.01,-31.0,3.0,57.0,32.29,0.271609,66.37,0.90625,0
96,15001.5,19.1,-31.0,3.0,57.0,32.29,0.269047,66.37,0.90625,0
97,15001.515625,23.88,-31.0,3.0,57.0,32.29,0.269047,66.37,0.90625,0
98,15001.53125,26.84,-31.0,3.0,57.0,32.29,0.269047,66.37,0.90625,0
99,15001.546875,28.74,-31.0,3.0,57.0,32.29,0.269047,66.37,0.90625,0
100,15001.5625,30.24,-31.0,4.0,57.0,32.29,0.269047,66.37,0.90625,0
101,15001.578125,31.82,-31.0,4.0,57.0,32.29,0.269047,66.37,0.90625,0
102,15001.59375,33.62,-31.0,3.0,57.0,32.29,0.269047,66.37,0.90625,0
103,15001.609375,35.56,-31.0,3.0,57.0,32.29,0.269047,66.37,0.90625,0
104,15001.625,37.35,-31.0,3.0,57.0,32.29,0.269047,66.37,0.90625,0
105,15001.640625,38.62,-31.0,3.0,57.0,32.29,0.269047,66.37,0.90625,0
106,15001.65625,39.02,-31.0,3.0,57.0,32.29,0.269047,66.37,0.90625,0
107,15001.671875,38.34,-31.0,3.0,57.0,32.29,0.269047,66.37,0.90625,0
108,15001.6875,36.64,-31.0,3.0,57.0,32.29,0.269047,66.37,0.90625,0
109,15001.703125,34.11,-31.0,3.0,57.0,32.29,0.269047,66.37,0.90625,0
110,15001.71875,31.11,-31.0,3.0,57.0,32.29,0.269047,66.37,0.90625,0
111,15001.734375,27.99,-31.0,3.0,57.0,32.29,0.269047,66.37,0.90625,0
112,15001.75,25.0,-31.0,3.0,57.0,32.29,0.271609,66.37,0.90625,0
113,15001.765625,22.34,-31.0,3.0,57.0,32.29,0.271609,66.37,0.90625,0
114,15001.78125,20.16,-31.0,3.0,57.0,32.29,0.271609,66.37,0.90625,0
115,15001.796875,18.57,-31.0,3.0,57.0,32.29,0.271609,66.37,0.90625,0
116,15001.8125,17.6,-31.0,3.0,57.0,32.29,0.271609,66.37,0.90625,0
117,15001.828125,17.16,-31.0,3.0,57.0,32.29,0.271609,66.37,0.90625,0
118,15001.84375,16.95,-31.0,3.0,57.0,32.29,0.271609,66.37,0.90625,0
119,15001.859375,16.6,-31.0,3.0,57.0,32.29,0.271609,66.37,0.90625,0
120,15001.875,15.72,-31.0,3.0,57.0,32.29,0.271609,66.37,0.90625,0
121,15001.890625,14.19,-31.0,3.0,57.0,32.29,0.271609,66.37,0.90625,0
122,15001.90625,12.14,-31.0,3.0,58.0,32.29,0.271609,66.37,0.90625,0
123,15001.921875,9.95,-31.0,3.0,58.0,32.29,0.271609,66.37,0.90625,0
124,15001.9375,8.03,-31.0,3.0,57.0,32.29,0.271609,66.37,0.90625,0
125,15001.953125,6.62,-31.0,3.0,57.0,32.29,0.271609,66.37,0.90625,0
126,15001.96875,5.73,-31.0,4.0,57.0,32.29,0.271609,66.37,0.90625,0
127,15001.984375,5.16,-31.0,4.0,57.0,32.29,0.271609,66.37,0.90625,0
128,15002.0,4.67,-31.0,3.0,57.0,32.29,0.269047,66.17,0.90625,0
129,15002.015625,4.07,-31.0,3.0,57.0,32.29,0.269047,66.17,0.90625,0
130,15002.03125,3.31,-31.0,3.0,58.0,32.29,0.269047,66.17,0.90625,0
131,15002.046875,2.42,-31.0,3.0,58.0,32.29,0.269047,66.17,0.90625,0
132,15002.0625,1.44,-31.0,3.0,57.0,32.29,0.269047,66.17,0.90625,0
133,15002.078125,0.46,-31.0,3.0,57.0,32.29,0.269047,66.17,0.90625,0
134,15002.09375,-0.54,-31.0,3.0,57.0,32.29,0.269047,66.17,0.90625,0
135,15002.109375,-1.52,-31.0,3.0,57.0,32.29,0.269047,66.17,0.90625,0
136,15002.125,-2.52,-31.0,4.0,58.0,32.29,0.269047,66.17,0.90625,0
137,15002.140625,-3.52,-31.0,4.0,58.0,32.29,0.269047,66.17,0.90625,0
138,15002.15625,-4.56,-31.0,3.0,57.0,32.29,0.269047,66.17,0.90625,0
139,15002.171875,-5.65,-31.0,3.0,57.0,32.29,0.269047,66.17,0.90625,0
140,15002.1875,-6.76,-31.0,3.0,57.0,32.29,0.269047,66.17,0.90625,0
141,15002.203125,-7.82,-31.0,3.0,57.0,32.29,0.269047,66.17,0.90625,0
142,15002.21875,-8.66,-31.0,3.0,57.0,32.29,0.269047,66.17,0.90625,0
143,15002.234375,-9.15,-31.0,3.0,57.0,32.29,0.269047,66.17,0.90625,0
144,15002.25,-9.27,-31.0,3.0,57.0,32.29,0.266485,66.17,0.90625,0
145,15002.265625,-9.18,-31.0,3.0,57.0,32.29,0.266485,66.17,0.90625,0
146,15002.28125,-9.2,-31.0,4.0,57.0,32.29,0.266485,66.17,0.90625,0
147,15002.296875,-9.69,-31.0,4.0,57.0,32.29,0.266485,66.17,0.90625,0
148,15002.3125,-10.82,-31.0,3.0,57.0,32.29,0.266485,66.17,0.90625,0
149,15002.328125,-12.6,-31.0,3.0,57.0,32.29,0.266485,66.17,0.90625,0
150,15002.34375,-14.76,-31.0,3.0,57.0,32.29,0.266485,66.17,0.90625,0
151,15002.359375,-16.92,-31.0,3.0,57.0,32.29,0.266485,66.17,0.90625,0
152,15002.375,-18.73,-31.0,3.0,57.0,32.29,0.266485,66.17,0.90625,0
153,15002.390625,-20.01,-31.0,3.0,57.0,32.29,0.266485,66.17,0.90625,0
154,15002.40625,-20.83,-31.0,3.0,57.0,32.29,0.266485,66.17,0.90625,0
155,15002.421875,-21.4,-31.0,3.0,57.0,32.29,0.266485,66.17,0.90625,0
156,15002.4375,-22.06,-31.0,3.0,57.0,32.29,0.266485,66.17,0.90625,0
157,15002.453125,-23.11,-31.0,3.0,57.0,32.29,0.266485,66.17,0.90625,0
158,15002.46875,-24.73,-31.0,3.0,57.0,32.29,0.266485,66.17,0.90625,0
159,15002.484375,-26.92,-31.0,3.0,57.0,32.29,0.266485,66.17,0.90625,0
160,15002.5,-29.43,-31.0,3.0,57.0,32.29,0.265204,66.17,0.90625,0
161,15002.515625,-31.73,-31.0,3.0,57.0,32.29,0.265204,66.17,0.90625,0
162,15002.53125,-33.06,-31.0,4.0,57.0,32.29,0.265204,66.17,0.90625,0
163,15002.546875,-32.57,-31.0,4.0,57.0,32.29,0.265204,66.17,0.90625,0
164,15002.5625,-29.63,-31.0,3.0,57.0,32.29,0.265204,66.17,0.90625,0
165,15002.578125,-24.09,-31.0,3.0,57.0,32.29,0.265204,66.17,0.90625,0
166,15002.59375,-16.42,-31.0,4.0,58.0,32.29,0.265204,66.17,0.90625,0
167,15002.609375,-7.63,-31.0,4.0,58.0,32.29,0.265204,66.17,0.90625,0
168,15002.625,1.02,-31.0,4.0,58.0,32.29,0.265204,66.17,0.90625,0
169,15002.640625,8.44,-31.0,4.0,58.0,32.29,0.265204,66.17,0.90625,0
170,15002.65625,14.01,-31.0,3.0,57.0,32.29,0.265204,66.17,0.90625,0
171,15002.671875,17.67,-31.0,3.0,57.0,32.29,0.265204,66.17,0.90625,0
172,15002.6875,19.8,-31.0,3.0,57.0,32.29,0.265204,66.17,0.90625,0
173,15002.703125,20.85,-31.0,3.0,57.0,32.29,0.265204,66.17,0.90625,0
174,15002.71875,21.18,-31.0,3.0,57.0,32.29,0.265204,66.17,0.90625,0
175,15002.734375,20.91,-31.0,3.0,57.0,32.29,0.265204,66.17,0.90625,0
176,15002.75,20.02,-31.0,3.0,57.0,32.29,0.265204,66.17,0.90625,0
177,15002.765625,18.54,-31.0,3.0,57.0,32.29,0.265204,66.17,0.90625,0
178,15002.78125,16.63,-31.0,3.0,58.0,32.29,0.265204,66.17,0.90625,0
179,15002.796875,14.6,-31.0,3.0,58.0,32.29,0.265204,66.17,0.90625,0
180,15002.8125,12.79,-31.0,3.0,58.0,32.29,0.265204,66.17,0.90625,0
181,15002.828125,11.45,-31.0,3.0,58.0,32.29,0.265204,66.17,0.90625,0
182,15002.84375,10.62,-31.0,3.0,57.0,32.29,0.265204,66.17,0.90625,0
183,15002.859375,10.16,-31.0,3.0,57.0,32.29,0.265204,66.17,0.90625,0
184,15002.875,9.87,-31.0,3.0,57.0,32.29,0.265204,66.17,0.90625,0
185,15002.890625,9.59,-31.0,3.0,57.0,32.29,0.265204,66.17,0.90625,0
186,15002.90625,9.29,-30.0,4.0,58.0,32.29,0.265204,66.17,0.90625,0
187,15002.921875,9.0,-30.0,4.0,58.0,32.29,0.265204,66.17,0.90625,0
188,15002.9375,8.79,-31.0,3.0,57.0,32.29,0.265204,66.17,0.90625,0
189,15002.953125,8.61,-31.0,3.0,57.0,32.29,0.265204,66.17,0.90625,0
190,15002.96875,8.27,-31.0,3.0,57.0,32.29,0.265204,66.17,0.90625,0
191,15002.984375,7.53,-31.0,3.0,57.0,32.29,0.265204,66.17,0.90625,0
192,15003.0,6.22,-31.0,3.0,57.0,32.29,0.263922,65.95,0.90625,0
193,15003.015625,4.33,-31.0,3.0,57.0,32.29,0.263922,65.95,0.90625,0
194,15003.03125,2.05,-31.0,3.0,57.0,32.29,0.263922,65.95,0.90625,0
195,15003.046875,-0.27,-31.0,3.0,57.0,32.29,0.263922,65.95,0.90625,0
196,15003.0625,-2.3,-31.0,3.0,57.0,32.29,0.263922,65.95,0.90625,0
197,15003.078125,-3.8,-31.0,3.0,57.0,32.29,0.263922,65.95,0.90625,0
198,15003.09375,-4.78,-31.0,3.0,57.0,32.29,0.263922,65.95,0.90625,0
199,15003.109375,-5.46,-31.0,3.0,57.0,32.29,0.263922,65.95,0.90625,0
200,15003.125,-6.22,-31.0,3.0,58.0,32.29,0.263922,65.95,0.90625,0
201,15003.140625,-7.36,-31.0,3.0,58.0,32.29,0.263922,65.95,0.90625,0
202,15003.15625,-9.04,-31.0,3.0,58.0,32.29,0.263922,65.95,0.90625,0
203,15003.171875,-11.21,-31.0,3.0,58.0,32.29,0.263922,65.95,0.90625,0
204,15003.1875,-13.6,-30.0,3.0,57.0,32.29,0.263922,65.95,0.90625,0
205,15003.203125,-15.93,-30.0,3.0,57.0,32.29,0.263922,65.95,0.90625,0
206,15003.21875,-18.0,-30.0,3.0,57.0,32.29,0.263922,65.95,0.90625,0
207,15003.234375,-19.74,-30.0,3.0,57.0,32.29,0.263922,65.95,0.90625,0
208,15003.25,-21.21,-30.0,4.0,57.0,32.29,0.263922,65.95,0.90625,0
209,15003.265625,-22.6,-30.0,4.0,57.0,32.29,0.263922,65.95,0.90625,0
210,15003.28125,-24.14,-30.0,3.0,58.0,32.29,0.263922,65.95,0.90625,0
211,15003.296875,-26.05,-30.0,3.0,58.0,32.29,0.263922,65.95,0.90625,0
212,15003.3125,-28.52,-31.0,3.0,58.0,32.29,0.263922,65.95,0.90625,0
213,15003.328125,-31.56,-31.0,3.0,58.0,32.29,0.263922,65.95,0.90625,0
214,15003.34375,-34.87,-31.0,3.0,58.0,32.29,0.263922,65.95,0.90625,0
215,15003.359375,-37.81,-31.0,3.0,58.0,32.29,0.263922,65.95,0.90625,0
216,15003.375,-39.48,-31.0,3.0,57.0,32.29,0.263922,65.95,0.90625,0
217,15003.390625,-38.97,-31.0,3.0,57.0,32.29,0.263922,65.95,0.90625,0
218,15003.40625,-35.72,-30.0,3.0,57.0,32.29,0.263922,65.95,0.90625,0
219,15003.421875,-29.8,-30.0,3.0,57.0,32.29,0.263922,65.95,0.90625,0
220,15003.4375,-21.94,-31.0,3.0,58.0,32.29,0.263922,65.95,0.90625,0
221,15003.453125,-13.3,-31.0,3.0,58.0,32.29,0.263922,65.95,0.90625,0
222,15003.46875,-5.11,-31.0,3.0,57.0,32.29,0.263922,65.95,0.90625,0
223,15003.484375,1.75,-31.0,3.0,57.0,32.29,0.263922,65.95,0.90625,0
224,15003.5,6.88,-30.0,3.0,57.0,32.29,0.26136,65.95,0.90625,0
225,15003.515625,10.42,-30.0,3.0,57.0,32.29,0.26136,65.95,0.90625,0
226,15003.53125,12.81,-30.0,4.0,57.0,32.29,0.26136,65.95,0.90625,0
227,15003.546875,14.59,-30.0,4.0,57.0,32.29,0.26136,65.95,0.90625,0
228,15003.5625,16.15,-31.0,3.0,58.0,32.29,0.26136,65.95,0.90625,0
229,15003.578125,17.74,-31.0,3.0,58.0,32.29,0.26136,65.95,0.90625,0
230,15003.59375,19.39,-31.0,3.0,58.0,32.29,0.26136,65.95,0.90625,0
231,15003.609375,20.95,-31.0,3.0,58.0,32.29,0.26136,65.95,0.90625,0
232,15003.625,22.16,-31.0,3.0,58.0,32.29,0.26136,65.95,0.90625,0
233,15003.640625,22.73,-31.0,3.0,58.0,32.29,0.26136,65.95,0.90625,0
234,15003.65625,22.44,-30.0,3.0,57.0,32.29,0.26136,65.95,0.90625,0
235,15003.671875,21.26,-30.0,3.0,57.0,32.29,0.26136,65.95,0.90625,0
236,15003.6875,19.38,-30.0,3.0,57.0,32.29,0.26136,65.95,0.90625,0
237,15003.703125,17.16,-30.0,3.0,57.0,32.29,0.26136,65.95,0.90625,0
238,15003.71875,14.99,-31.0,3.0,57.0,32.29,0.26136,65.95,0.90625,0
239,15003.734375,13.2,-31.0,3.0,57.0,32.29,0.26136,65.95,0.90625,0
240,15003.75,11.91,-31.0,3.0,58.0,32.29,0.262641,65.95,0.90625,0
241,15003.765625,11.1,-31.0,3.0,58.0,32.29,0.262641,65.95,0.90625,0
242,15003.78125,10.57,-30.0,3.0,58.0,32.29,0.262641,65.95,0.90625,0
243,15003.796875,10.15,-30.0,3.0,58.0,32.29,0.262641,65.95,0.90625,0
244,15003.8125,9.65,-30.0,4.0,58.0,32.29,0.262641,65.95,0.90625,0
245,15003.828125,8.9,-30.0,4.0,58.0,32.29,0.262641,65.95,0.90625,0
246,15003.84375,7.83,-30.0,4.0,58.0,32.29,0.262641,65.95,0.90625,0
247,15003.859375,6.36,-30.0,4.0,58.0,32.29,0.262641,65.95,0.90625,0
248,15003.875,4.5,-30.0,3.0,58.0,32.29,0.262641,65.95,0.90625,0
249,15003.890625,2.31,-30.0,3.0,58.0,32.29,0.262641,65.95,0.90625,0
250,15003.90625,-0.11,-30.0,3.0,58.0,32.29,0.262641,65.95,0.90625,0
251,15003.921875,-2.69,-30.0,3.0,58.0,32.29,0.262641,65.95,0.90625,0
252,15003.9375,-5.36,-31.0,3.0,57.0,32.29,0.262641,65.95,0.90625,0
253,15003.953125,-8.12,-31.0,3.0,57.0,32.29,0.262641,65.95,0.90625,0
254,15003.96875,-10.94,-31.0,3.0,57.0,32.29,0.262641,65.95,0.90625,0
255,15003.984375,-13.79,-31.0,3.0,57.0,32.29,0.262641,65.95,0.90625,0
256,15004.0,-16.54,-30.0,4.0,57.0,32.31,0.26136,65.77,0.90625,0
257,15004.015625,-19.08,-30.0,4.0,57.0,32.31,0.26136,65.77,0.90625,0
258,15004.03125,-21.27,-30.0,4.0,57.0,32.31,0.26136,65.77,0.90625,0
259,15004.046875,-23.08,-30.0,4.0,57.0,32.31,0.26136,65.77,0.90625,0
260,15004.0625,-24.63,-30.0,3.0,57.0,32.31,0.26136,65.77,0.90625,0
261,15004.078125,-26.14,-30.0,3.0,57.0,32.31,0.26136,65.77,0.90625,0
262,15004.09375,-27.96,-30.0,3.0,57.0,32.31,0.26136,65.77,0.90625,0
263,15004.109375,-30.38,-30.0,3.0,57.0,32.31,0.26136,65.77,0.90625,0
264,15004.125,-33.47,-30.0,4.0,57.0,32.31,0.26136,65.77,0.90625,0
265,15004.140625,-36.9,-30.0,4.0,57.0,32.31,0.26136,65.77,0.90625,0
266,15004.15625,-39.85,-30.0,4.0,57.0,32.31,0.26136,65.77,0.90625,0
267,15004.171875,-41.19,-30.0,4.0,57.0,32.31,0.26136,65.77,0.90625,0
268,15004.1875,-39.9,-31.0,3.0,57.0,32.31,0.26136,65.77,0.90625,0
269,15004.203125,-35.43,-31.0,3.0,57.0,32.31,0.26136,65.77,0.90625,0
270,15004.21875,-28.05,-30.0,4.0,57.0,32.31,0.26136,65.77,0.90625,0
271,15004.234375,-18.77,-30.0,4.0,57.0,32.31,0.26136,65.77,0.90625,0
272,15004.25,-8.99,-30.0,4.0,58.0,32.31,0.26136,65.77,0.90625,0
273,15004.265625,0.01,-30.0,4.0,58.0,32.31,0.26136,65.77,0.90625,0
274,15004.28125,7.48,-31.0,4.0,58.0,32.31,0.26136,65.77,0.90625,0
275,15004.296875,13.24,-31.0,4.0,58.0,32.31,0.26136,65.77,0.90625,0
276,15004.3125,17.65,-30.0,3.0,58.0,32.31,0.26136,65.77,0.90625,0
277,15004.328125,21.17,-30.0,3.0,58.0,32.31,0.26136,65.77,0.90625,0
278,15004.34375,24.2,-30.0,3.0,58.0,32.31,0.26136,65.77,0.90625,0
279,15004.359375,27.01,-30.0,3.0,58.0,32.31,0.26136,65.77,0.90625,0
280,15004.375,29.72,-30.0,4.0,58.0,32.31,0.26136,65.77,0.90625,0
281,15004.390625,32.34,-30.0,4.0,58.0,32.31,0.26136,65.77,0.90625,0
282,15004.40625,34.8,-30.0,4.0,58.0,32.31,0.26136,65.77,0.90625,0
283,15004.421875,36.9,-30.0,4.0,58.0,32.31,0.26136,65.77,0.90625,0
284,15004.4375,38.25,-30.0,4.0,57.0,32.31,0.26136,65.77,0.90625,0
285,15004.453125,38.52,-30.0,4.0,57.0,32.31,0.26136,65.77,0.90625,0
286,15004.46875,37.43,-30.0,4.0,58.0,32.31,0.26136,65.77,0.90625,0
287,15004.484375,34.99,-30.0,4.0,58.0,32.31,0.26136,65.77,0.90625,0
288,15004.5,31.59,-30.0,4.0,58.0,32.31,0.260079,65.77,0.90625,0
289,15004.515625,27.75,-30.0,4.0,58.0,32.31,0.260079,65.77,0.90625,0
290,15004.53125,24.09,-30.0,4.0,57.0,32.31,0.260079,65.77,0.90625,0
291,15004.546875,20.99,-30.0,4.0,57.0,32.31,0.260079,65.77,0.90625,0
292,15004.5625,18.6,-30.0,4.0,58.0,32.31,0.260079,65.77,0.90625,0
293,15004.578125,16.75,-30.0,4.0,58.0,32.31,0.260079,65.77,0.90625,0
294,15004.59375,15.18,-30.0,3.0,57.0,32.31,0.260079,65.77,0.90625,0
295,15004.609375,13.64,-30.0,3.0,57.0,32.31,0.260079,65.77,0.90625,0
296,15004.625,12.02,-30.0,3.0,57.0,32.31,0.260079,65.77,0.90625,0
297,15004.640625,10.29,-30.0,3.0,57.0,32.31,0.260079,65.77,0.90625,0
298,15004.65625,8.46,-30.0,4.0,58.0,32.31,0.260079,65.77,0.90625,0
299,15004.671875,6.49,-30.0,4.0,58.0,32.31,0.260079,65.77,0.90625,0
300,15004.6875,4.27,-30.0,4.0,57.0,32.31,0.260079,65.77,0.90625,0
301,15004.703125,1.7,-30.0,4.0,57.0,32.31,0.260079,65.77,0.90625,0
302,15004.71875,-1.31,-31.0,3.0,57.0,32.31,0.260079,65.77,0.90625,0
303,15004.734375,-4.68,-31.0,3.0,57.0,32.31,0.260079,65.77,0.90625,0
304,15004.75,-8.21,-31.0,3.0,58.0,32.31,0.260079,65.77,0.90625,0
305,15004.765625,-11.64,-31.0,3.0,58.0,32.31,0.260079,65.77,0.90625,0
306,15004.78125,-14.72,-30.0,4.0,58.0,32.31,0.260079,65.77,0.90625,0
307,15004.796875,-17.33,-30.0,4.0,58.0,32.31,0.260079,65.77,0.90625,0
308,15004.8125,-19.44,-30.0,4.0,57.0,32.31,0.260079,65.77,0.90625,0
309,15004.828125,-21.14,-30.0,4.0,57.0,32.31,0.260079,65.77,0.90625,0
310,15004.84375,-22.6,-30.0,4.0,57.0,32.31,0.260079,65.77,0.90625,0
311,15004.859375,-24.1,-30.0,4.0,57.0,32.31,0.260079,65.77,0.90625,0
312,15004.875,-25.95,-31.0,4.0,58.0,32.31,0.260079,65.77,0.90625,0
313,15004.890625,-28.41,-31.0,4.0,58.0,32.31,0.260079,65.77,0.90625,0
314,15004.90625,-31.6,-30.0,3.0,58.0,32.31,0.260079,65.77,0.90625,0
315,15004.921875,-35.21,-30.0,3.0,58.0,32.31,0.260079,65.77,0.90625,0
316,15004.9375,-38.52,-31.0,4.0,58.0,32.31,0.260079,65.77,0.90625,0
317,15004.953125,-40.49,-31.0,4.0,58.0,32.31,0.260079,65.77,0.90625,0
318,15004.96875,-40.04,-31.0,3.0,58.0,32.31,0.260079,65.77,0.90625,0
319,15004.984375,-36.46,-31.0,3.0,58.0,32.31,0.260079,65.77,0.90625,0
320,15005.0,-29.74,-30.0,4.0,58.0,32.29,0.260079,65.58,0.90625,0
321,15005.015625,-20.65,-30.0,4.0,58.0,32.29,0.260079,65.58,0.90625,0
322,15005.03125,-10.52,-31.0,4.0,58.0,32.29,0.260079,65.58,0.90625,0
323,15005.046875,-0.79,-31.0,4.0,58.0,32.29,0.260079,65.58,0.90625,0
324,15005.0625,7.47,-31.0,3.0,58.0,32.29,0.260079,65.58,0.90625,0
325,15005.078125,13.8,-31.0,3.0,58.0,32.29,0.260079,65.58,0.90625,0
326,15005.09375,18.43,-31.0,3.0,57.0,32.29,0.260079,65.58,0.90625,0
327,15005.109375,21.96,-31.0,3.0,57.0,32.29,0.260079,65.58,0.90625,0
328,15005.125,25.07,-30.0,4.0,57.0,32.29,0.260079,65.58,0.90625,0
329,15005.140625,28.18,-30.0,4.0,57.0,32.29,0.260079,65.58,0.90625,0
330,15005.15625,31.41,-31.0,4.0,58.0,32.29,0.260079,65.58,0.90625,0
331,15005.171875,34.63,-31.0,4.0,58.0,32.29,0.260079,65.58,0.90625,0
332,15005.1875,37.55,-31.0,4.0,58.0,32.29,0.260079,65.58,0.90625,0
333,15005.203125,39.9,-31.0,4.0,58.0,32.29,0.260079,65.58,0.90625,0
334,15005.21875,41.44,-31.0,4.0,57.0,32.29,0.260079,65.58,0.90625,0
335,15005.234375,41.95,-31.0,4.0,57.0,32.29,0.260079,65.58,0.90625,0
336,15005.25,41.26,-31.0,3.0,57.0,32.29,0.257517,65.58,0.90625,0
337,15005.265625,39.29,-31.0,3.0,57.0,32.29,0.257517,65.58,0.90625,0
338,15005.28125,36.15,-31.0,3.0,58.0,32.29,0.257517,65.58,0.90625,0
339,15005.296875,32.21,-31.0,3.0,58.0,32.29,0.257517,65.58,0.90625,0
340,15005.3125,27.99,-31.0,3.0,58.0,32.29,0.257517,65.58,0.90625,0
341,15005.328125,24.08,-31.0,3.0,58.0,32.29,0.257517,65.58,0.90625,0
342,15005.34375,21.0,-31.0,3.0,58.0,32.29,0.257517,65.58,0.90625,0
343,15005.359375,19.0,-31.0,3.0,58.0,32.29,0.257517,65.58,0.90625,0
344,15005.375,18.04,-31.0,3.0,57.0,32.29,0.257517,65.58,0.90625,0
345,15005.390625,17.77,-31.0,3.0,57.0,32.29,0.257517,65.58,0.90625,0
346,15005.40625,17.71,-30.0,3.0,58.0,32.29,0.257517,65.58,0.90625,0
347,15005.421875,17.38,-30.0,3.0,58.0,32.29,0.257517,65.58,0.90625,0
348,15005.4375,16.47,-31.0,4.0,57.0,32.29,0.257517,65.58,0.90625,0
349,15005.453125,14.92,-31.0,4.0,57.0,32.29,0.257517,65.58,0.90625,0
350,15005.46875,12.84,-30.0,3.0,57.0,32.29,0.257517,65.58,0.90625,0
351,15005.484375,10.53,-30.0,3.0,57.0,32.29,0.257517,65.58,0.90625,0
352,15005.5,8.3,-31.0,3.0,57.0,32.29,0.257517,65.58,0.90625,0
353,15005.515625,6.4,-31.0,3.0,57.0,32.29,0.257517,65.58,0.90625,0
354,15005.53125,4.97,-31.0,3.0,57.0,32.29,0.257517,65.58,0.90625,0
355,15005.546875,3.99,-31.0,3.0,57.0,32.29,0.257517,65.58,0.90625,0
356,15005.5625,3.3,-31.0,3.0,57.0,32.29,0.257517,65.58,0.90625,0
357,15005.578125,2.65,-31.0,3.0,57.0,32.29,0.257517,65.58,0.90625,0
358,15005.59375,1.79,-31.0,3.0,57.0,32.29,0.257517,65.58,0.90625,0
359,15005.609375,0.53,-31.0,3.0,57.0,32.29,0.257517,65.58,0.90625,0
360,15005.625,-1.1,-31.0,3.0,57.0,32.29,0.257517,65.58,0.90625,0
361,15005.640625,-2.93,-31.0,3.0,57.0,32.29,0.257517,65.58,0.90625,0
362,15005.65625,-4.68,-31.0,3.0,57.0,32.29,0.257517,65.58,0.90625,0
363,15005.671875,-6.06,-31.0,3.0,57.0,32.29,0.257517,65.58,0.90625,0
364,15005.6875,-6.95,-31.0,3.0,57.0,32.29,0.257517,65.58,0.90625,0
365,15005.703125,-7.43,-31.0,3.0,57.0,32.29,0.257517,65.58,0.90625,0
366,15005.71875,-7.81,-31.0,3.0,57.0,32.29,0.257517,65.58,0.90625,0
367,15005.734375,-8.46,-31.0,3.0,57.0,32.29,0.257517,65.58,0.90625,0
368,15005.75,-9.7,-31.0,3.0,57.0,32.29,0.256235,65.58,0.90625,0
369,15005.765625,-11.56,-31.0,3.0,57.0,32.29,0.256235,65.58,0.90625,0
370,15005.78125,-13.88,-31.0,3.0,57.0,32.29,0.256235,65.58,0.90625,0
371,15005.796875,-16.32,-31.0,3.0,57.0,32.29,0.256235,65.58,0.90625,0
372,15005.8125,-18.5,-31.0,3.0,58.0,32.29,0.256235,65.58,0.90625,0
373,15005.828125,-20.2,-31.0,3.0,58.0,32.29,0.256235,65.58,0.90625,0
374,15005.84375,-21.45,-31.0,3.0,57.0,32.29,0.256235,65.58,0.90625,0
375,15005.859375,-22.46,-31.0,3.0,57.0,32.29,0.256235,65.58,0.90625,0
376,15005.875,-23.54,-31.0,4.0,57.0,32.29,0.256235,65.58,0.90625,0
377,15005.890625,-25.05,-31.0,4.0,57.0,32.29,0.256235,65.58,0.90625,0
378,15005.90625,-27.2,-31.0,3.0,58.0,32.29,0.256235,65.58,0.90625,0
379,15005.921875,-29.99,-31.0,3.0,58.0,32.29,0.256235,65.58,0.90625,0
380,15005.9375,-33.08,-31.0,3.0,57.0,32.29,0.256235,65.58,0.90625,0
381,15005.953125,-35.82,-31.0,3.0,57.0,32.29,0.256235,65.58,0.90625,0
382,15005.96875,-37.27,-31.0,3.0,57.0,32.29,0.256235,65.58,0.90625,0
383,15005.984375,-36.49,-31.0,3.0,57.0,32.29,0.256235,65.58,0.90625,0
384,15006.0,-32.88,-31.0,3.0,57.0,32.27,0.256235,65.43,0.90625,0
385,15006.015625,-26.42,-31.0,3.0,57.0,32.27,0.256235,65.43,0.90625,0
386,15006.03125,-17.87,-31.0,3.0,57.0,32.27,0.256235,65.43,0.90625,0
387,15006.046875,-8.5,-31.0,3.0,57.0,32.27,0.256235,65.43,0.90625,0
388,15006.0625,0.33,-31.0,3.0,58.0,32.27,0.256235,65.43,0.90625,0
389,15006.078125,7.67,-31.0,3.0,58.0,32.27,0.256235,65.43,0.90625,0
390,15006.09375,13.19,-31.0,3.0,58.0,32.27,0.256235,65.43,0.90625,0
391,15006.109375,17.18,-31.0,3.0,58.0,32.27,0.256235,65.43,0.90625,0
392,15006.125,20.25,-31.0,3.0,57.0,32.27,0.256235,65.43,0.90625,0
393,15006.140625,23.0,-31.0,3.0,57.0,32.27,0.256235,65.43,0.90625,0
394,15006.15625,25.75,-31.0,3.0,57.0,32.27,0.256235,65.43,0.90625,0
395,15006.171875,28.52,-31.0,3.0,57.0,32.27,0.256235,65.43,0.90625,0
396,15006.1875,31.13,-31.0,3.0,57.0,32.27,0.256235,65.43,0.90625,0
397,15006.203125,33.37,-31.0,3.0,57.0,32.27,0.256235,65.43,0.90625,0
398,15006.21875,35.01,-30.0,3.0,57.0,32.27,0.256235,65.43,0.90625,0
399,15006.234375,35.89,-30.0,3.0,57.0,32.27,0.256235,65.43,0.90625,0
400,15006.25,35.84,-31.0,3.0,58.0,32.27,0.257517,65.43,0.90625,0
401,15006.265625,34.74,-31.0,3.0,58.0,32.27,0.257517,65.43,0.90625,0
402,15006.28125,32.57,-31.0,3.0,58.0,32.27,0.257517,65.43,0.90625,0
403,15006.296875,29.46,-31.0,3.0,58.0,32.27,0.257517,65.43,0.90625,0
404,15006.3125,25.77,-31.0,4.0,57.0,32.27,0.257517,65.43,0.90625,0
405,15006.328125,22.0,-31.0,4.0,57.0,32.27,0.257517,65.43,0.90625,0
406,15006.34375,18.67,-31.0,3.0,57.0,32.27,0.257517,65.43,0.90625,0
407,15006.359375,16.12,-31.0,3.0,57.0,32.27,0.257517,65.43,0.90625,0
408,15006.375,14.5,-31.0,3.0,57.0,32.27,0.257517,65.43,0.90625,0
409,15006.390625,13.68,-31.0,3.0,57.0,32.27,0.257517,65.43,0.90625,0
410,15006.40625,13.31,-31.0,3.0,57.0,32.27,0.257517,65.43,0.90625,0
411,15006.421875,12.96,-31.0,3.0,57.0,32.27,0.257517,65.43,0.90625,0
412,15006.4375,12.31,-31.0,3.0,58.0,32.27,0.257517,65.43,0.90625,0
413,15006.453125,11.15,-31.0,3.0,58.0,32.27,0.257517,65.43,0.90625,0
414,15006.46875,9.47,-31.0,3.0,57.0,32.27,0.257517,65.43,0.90625,0
415,15006.484375,7.42,-31.0,3.0,57.0,32.27,0.257517,65.43,0.90625,0
416,15006.5,5.23,-31.0,3.0,57.0,32.27,0.254954,65.43,0.90625,0
417,15006.515625,3.1,-31.0,3.0,57.0,32.27,0.254954,65.43,0.90625,0
418,15006.53125,1.26,-31.0,3.0,57.0,32.27,0.254954,65.43,0.90625,0
419,15006.546875,-0.22,-31.0,3.0,57.0,32.27,0.254954,65.43,0.90625,0
420,15006.5625,-1.42,-31.0,3.0,57.0,32.27,0.254954,65.43,0.90625,0
421,15006.578125,-2.5,-31.0,3.0,57.0,32.27,0.254954,65.43,0.90625,0
422,15006.59375,-3.68,-31.0,3.0,57.0,32.27,0.254954,65.43,0.90625,0
423,15006.609375,-5.18,-31.0,3.0,57.0,32.27,0.254954,65.43,0.90625,0
424,15006.625,-7.08,-31.0,3.0,57.0,32.27,0.254954,65.43,0.90625,0
425,15006.640625,-9.28,-31.0,3.0,57.0,32.27,0.254954,65.43,0.90625,0
426,15006.65625,-11.58,-31.0,3.0,57.0,32.27,0.254954,65.43,0.90625,0
427,15006.671875,-13.69,-31.0,3.0,57.0,32.27,0.254954,65.43,0.90625,0
428,15006.6875,-15.41,-31.0,3.0,57.0,32.27,0.254954,65.43,0.90625,0
429,15006.703125,-16.64,-31.0,3.0,57.0,32.27,0.254954,65.43,0.90625,0
430,15006.71875,-17.44,-31.0,3.0,57.0,32.27,0.254954,65.43,0.90625,0
431,15006.734375,-17.96,-31.0,3.0,57.0,32.27,0.254954,65.43,0.90625,0
432,15006.75,-18.38,-31.0,3.0,57.0,32.27,0.253673,65.43,0.90625,0
433,15006.765625,-18.9,-31.0,3.0,57.0,32.27,0.253673,65.43,0.90625,0
434,15006.78125,-19.7,-31.0,3.0,57.0,32.27,0.253673,65.43,0.90625,0
435,15006.796875,-20.91,-31.0,3.0,57.0,32.27,0.253673,65.43,0.90625,0
436,15006.8125,-22.5,-31.0,3.0,57.0,32.27,0.253673,65.43,0.90625,0
437,15006.828125,-24.24,-31.0,3.0,57.0,32.27,0.253673,65.43,0.90625,0
438,15006.84375,-25.61,-31.0,3.0,57.0,32.27,0.253673,65.43,0.90625,0
439,15006.859375,-25.96,-31.0,3.0,57.0,32.27,0.253673,65.43,0.890625,0
440,15006.875,-24.74,-31.0,3.0,57.0,32.27,0.253673,65.43,0.890625,0
441,15006.890625,-21.7,-31.0,3.0,57.0,32.27,0.253673,65.43,0.890625,0
442,15006.90625,-17.0,-31.0,3.0,57.0,32.27,0.253673,65.43,0.890625,0
443,15006.921875,-11.25,-31.0,3.0,57.0,32.27,0.253673,65.43,0.890625,0
444,15006.9375,-5.23,-31.0,3.0,57.0,32.27,0.253673,65.43,0.890625,0
445,15006.953125,0.33,-31.0,3.0,57.0,32.27,0.253673,65.43,0.890625,0
446,15006.96875,4.94,-31.0,3.0,57.0,32.27,0.253673,65.43,0.890625,0
447,15006.984375,8.48,-31.0,3.0,57.0,32.27,0.253673,65.43,0.890625,0
448,15007.0,11.04,-31.0,3.0,58.0,32.29,0.254954,65.3,0.890625,0
449,15007.015625,12.8,-31.0,3.0,58.0,32.29,0.254954,65.3,0.890625,0
450,15007.03125,13.92,-31.0,3.0,57.0,32.29,0.254954,65.3,0.890625,0
451,15007.046875,14.47,-31.0,3.0,57.0,32.29,0.254954,65.3,0.890625,0
452,15007.0625,14.47,-31.0,3.0,57.0,32.29,0.254954,65.3,0.890625,0
453,15007.078125,13.96,-31.0,3.0,57.0,32.29,0.254954,65.3,0.890625,0
454,15007.09375,13.01,-31.0,3.0,57.0,32.29,0.254954,65.3,0.890625,0
455,15007.109375,11.77,-31.0,3.0,57.0,32.29,0.254954,65.3,0.890625,0
456,15007.125,10.44,-31.0,3.0,58.0,32.29,0.254954,65.3,0.890625,0
457,15007.140625,9.21,-31.0,3.0,58.0,32.29,0.254954,65.3,0.890625,0
458,15007.15625,8.22,-31.0,3.0,57.0,32.29,0.254954,65.3,0.890625,0
459,15007.171875,7.51,-31.0,3.0,57.0,32.29,0.254954,65.3,0.890625,0
460,15007.1875,7.02,-31.0,3.0,57.0,32.29,0.254954,65.3,0.890625,0
461,15007.203125,6.65,-31.0,3.0,57.0,32.29,0.254954,65.3,0.890625,0
462,15007.21875,6.33,-31.0,3.0,57.0,32.29,0.254954,65.3,0.890625,0
463,15007.234375,6.03,-31.0,3.0,57.0,32.29,0.254954,65.3,0.890625,0
464,15007.25,5.7,-31.0,3.0,57.0,32.29,0.257517,65.3,0.890625,0
465,15007.265625,5.27,-31.0,3.0,57.0,32.29,0.257517,65.3,0.890625,0
466,15007.28125,4.64,-31.0,3.0,57.0,32.29,0.257517,65.3,0.890625,0
467,15007.296875,3.66,-31.0,3.0,57.0,32.29,0.257517,65.3,0.890625,0
468,15007.3125,2.27,-31.0,3.0,57.0,32.29,0.257517,65.3,0.890625,0
469,15007.328125,0.51,-31.0,3.0,57.0,32.29,0.257517,65.3,0.890625,0
470,15007.34375,-1.45,-31.0,3.0,58.0,32.29,0.257517,65.3,0.890625,0
471,15007.359375,-3.35,-31.0,3.0,58.0,32.29,0.257517,65.3,0.890625,0
472,15007.375,-5.02,-31.0,3.0,57.0,32.29,0.257517,65.3,0.890625,0
473,15007.390625,-6.44,-31.0,3.0,57.0,32.29,0.257517,65.3,0.890625,0
474,15007.40625,-7.7,-31.0,3.0,57.0,32.29,0.257517,65.3,0.890625,0
475,15007.421875,-8.98,-31.0,3.0,57.0,32.29,0.257517,65.3,0.890625,0
476,15007.4375,-10.46,-31.0,3.0,57.0,32.29,0.257517,65.3,0.890625,0
477,15007.453125,-12.13,-31.0,3.0,57.0,32.29,0.257517,65.3,0.890625,0
478,15007.46875,-13.9,-31.0,3.0,58.0,32.29,0.257517,65.3,0.890625,0
479,15007.484375,-15.62,-31.0,3.0,58.0,32.29,0.257517,65.3,0.890625,0
480,15007.5,-17.15,-30.0,3.0,58.0,32.29,0.254954,65.3,0.890625,0
481,15007.515625,-18.4,-30.0,3.0,58.0,32.29,0.254954,65.3,0.890625,0
482,15007.53125,-19.42,-31.0,3.0,58.0,32.29,0.254954,65.3,0.890625,0
483,15007.546875,-20.29,-31.0,3.0,58.0,32.29,0.254954,65.3,0.890625,0
484,15007.5625,-21.2,-31.0,3.0,57.0,32.29,0.254954,65.3,0.890625,0
485,15007.578125,-22.38,-31.0,3.0,57.0,32.29,0.254954,65.3,0.890625,0
486,15007.59375,-24.01,-31.0,3.0,57.0,32.29,0.254954,65.3,0.890625,0
487,15007.609375,-26.19,-31.0,3.0,57.0,32.29,0.254954,65.3,0.890625,0
488,15007.625,-28.82,-31.0,3.0,57.0,32.29,0.254954,65.3,0.890625,0
489,15007.640625,-31.48,-31.0,3.0,57.0,32.29,0.254954,65.3,0.890625,0
490,15007.65625,-33.5,-30.0,3.0,58.0,32.29,0.254954,65.3,0.890625,0
491,15007.671875,-34.12,-30.0,3.0,58.0,32.29,0.254954,65.3,0.8125,0
492,15007.6875,-32.76,-31.0,3.0,58.0,32.29,0.254954,65.3,0.8125,0
493,15007.703125,-29.21,-31.0,3.0,58.0,32.29,0.254954,65.3,0.8125,0
494,15007.71875,-23.87,-31.0,3.0,57.0,32.29,0.254954,65.3,0.8125,0
495,15007.734375,-17.51,-31.0,3.0,57.0,32.29,0.254954,65.3,0.8125,0
496,15007.75,-11.06,-31.0,3.0,57.0,32.29,0.252392,65.3,0.8125,0
497,15007.765625,-5.36,-31.0,3.0,57.0,32.29,0.252392,65.3,0.8125,0
498,15007.78125,-0.78,-31.0,3.0,57.0,32.29,0.252392,65.3,0.8125,0
499,15007.796875,2.68,-31.0,3.0,57.0,32.29,0.252392,65.3,0.8125,0
500,15007.8125,5.35,-31.0,3.0,57.0,32.29,0.252392,65.3,0.8125,0
501,15007.828125,7.67,-31.0,3.0,57.0,32.29,0.252392,65.3,0.8125,0
502,15007.84375,10.02,-31.0,3.0,58.0,32.29,0.252392,65.3,0.8125,0
503,15007.859375,12.61,-31.0,3.0,58.0,32.29,0.252392,65.3,0.8125,0
504,15007.875,15.39,-31.0,3.0,57.0,32.29,0.252392,65.3,0.8125,0
505,15007.890625,18.17,-31.0,3.0,57.0,32.29,0.252392,65.3,0.8125,0
506,15007.90625,20.56,-31.0,3.0,57.0,32.29,0.252392,65.3,0.8125,0
507,15007.921875,22.23,-31.0,3.0,57.0,32.29,0.252392,65.3,0.8125,0
508,15007.9375,22.88,-31.0,3.0,58.0,32.29,0.252392,65.3,0.8125,0
509,15007.953125,22.41,-31.0,3.0,58.0,32.29,0.252392,65.3,0.8125,0
510,15007.96875,20.96,-31.0,3.0,57.0,32.29,0.252392,65.3,0.8125,0
511,15007.984375,18.79,-31.0,3.0,57.0,32.29,0.252392,65.3,0.8125,0
512,15008.0,16.29,-31.0,3.0,58.0,32.31,0.252392,65.2,0.8125,0
513,15008.015625,13.87,-31.0,3.0,58.0,32.31,0.252392,65.2,0.8125,0
514,15008.03125,11.89,-31.0,3.0,57.0,32.31,0.252392,65.2,0.8125,0
515,15008.046875,10.54,-31.0,3.0,57.0,32.31,0.252392,65.2,0.8125,0
516,15008.0625,9.85,-31.0,3.0,57.0,32.31,0.252392,65.2,0.8125,0
517,15008.078125,9.62,-31.0,3.0,57.0,32.31,0.252392,65.2,0.8125,0
518,15008.09375,9.45,-31.0,3.0,57.0,32.31,0.252392,65.2,0.8125,0
519,15008.109375,8.94,-31.0,3.0,57.0,32.31,0.252392,65.2,0.8125,0
520,15008.125,7.8,-31.0,3.0,58.0,32.31,0.252392,65.2,0.8125,0
521,15008.140625,5.98,-31.0,3.0,58.0,32.31,0.252392,65.2,0.8125,0
522,15008.15625,3.71,-31.0,3.0,57.0,32.31,0.252392,65.2,0.8125,0
523,15008.171875,1.35,-31.0,3.0,57.0,32.31,0.252392,65.2,0.8125,0
524,15008.1875,-0.78,-31.0,3.0,57.0,32.31,0.252392,65.2,0.8125,0
525,15008.203125,-2.57,-31.0,3.0,57.0,32.31,0.252392,65.2,0.8125,0
526,15008.21875,-4.1,-31.0,3.0,57.0,32.31,0.252392,65.2,0.8125,0
527,15008.234375,-5.62,-31.0,3.0,57.0,32.31,0.252392,65.2,0.8125,0
528,15008.25,-7.35,-31.0,3.0,58.0,32.31,0.251111,65.2,0.8125,0
529,15008.265625,-9.38,-31.0,3.0,58.0,32.31,0.251111,65.2,0.8125,0
530,15008.28125,-11.62,-30.0,3.0,57.0,32.31,0.251111,65.2,0.8125,0
531,15008.296875,-13.88,-30.0,3.0,57.0,32.31,0.251111,65.2,0.8125,0
532,15008.3125,-15.96,-31.0,3.0,57.0,32.31,0.251111,65.2,0.8125,0
533,15008.328125,-17.77,-31.0,3.0,57.0,32.31,0.251111,65.2,0.8125,0
534,15008.34375,-19.27,-31.0,3.0,58.0,32.31,0.251111,65.2,0.8125,0
535,15008.359375,-20.58,-31.0,3.0,58.0,32.31,0.251111,65.2,0.8125,0
536,15008.375,-21.86,-31.0,3.0,57.0,32.31,0.251111,65.2,0.8125,0
537,15008.390625,-23.36,-31.0,3.0,57.0,32.31,0.251111,65.2,0.8125,0
538,15008.40625,-25.29,-31.0,3.0,58.0,32.31,0.251111,65.2,0.8125,0
539,15008.421875,-27.7,-31.0,3.0,58.0,32.31,0.251111,65.2,0.8125,0
540,15008.4375,-30.38,-30.0,3.0,58.0,32.31,0.251111,65.2,0.8125,0
541,15008.453125,-32.84,-30.0,3.0,58.0,32.31,0.251111,65.2,0.8125,0
542,15008.46875,-34.32,-31.0,3.0,57.0,32.31,0.251111,65.2,0.796875,0
543,15008.484375,-34.1,-31.0,3.0,57.0,32.31,0.251111,65.2,0.796875,0
544,15008.5,-31.7,-31.0,3.0,58.0,32.31,0.252392,65.2,0.796875,0
545,15008.515625,-27.19,-31.0,3.0,58.0,32.31,0.252392,65.2,0.796875,0
546,15008.53125,-21.13,-31.0,3.0,58.0,32.31,0.252392,65.2,0.796875,0
547,15008.546875,-14.43,-31.0,3.0,58.0,32.31,0.252392,65.2,0.796875,0
548,15008.5625,-7.99,-31.0,3.0,58.0,32.31,0.252392,65.2,0.796875,0
549,15008.578125,-2.43,-31.0,3.0,58.0,32.31,0.252392,65.2,0.796875,0
550,15008.59375,2.07,-31.0,3.0,57.0,32.31,0.252392,65.2,0.796875,0
551,15008.609375,5.71,-31.0,3.0,57.0,32.31,0.252392,65.2,0.796875,0
552,15008.625,8.93,-31.0,3.0,57.0,32.31,0.252392,65.2,0.796875,0
553,15008.640625,12.12,-31.0,3.0,57.0,32.31,0.252392,65.2,0.796875,0
554,15008.65625,15.53,-31.0,3.0,57.0,32.31,0.252392,65.2,0.796875,0
555,15008.671875,19.14,-31.0,3.0,57.0,32.31,0.252392,65.2,0.796875,0
556,15008.6875,22.83,-30.0,3.0,57.0,32.31,0.252392,65.2,0.796875,0
557,15008.703125,26.28,-30.0,3.0,57.0,32.31,0.252392,65.2,0.796875,0
558,15008.71875,29.15,-31.0,3.0,57.0,32.31,0.252392,65.2,0.796875,0
559,15008.734375,31.1,-31.0,3.0,57.0,32.31,0.252392,65.2,0.796875,0
560,15008.75,31.85,-31.0,3.0,58.0,32.31,0.251111,65.2,0.796875,0
561,15008.765625,31.28,-31.0,3.0,58.0,32.31,0.251111,65.2,0.796875,0
562,15008.78125,29.46,-31.0,3.0,57.0,32.31,0.251111,65.2,0.796875,0
563,15008.796875,26.74,-31.0,3.0,57.0,32.31,0.251111,65.2,0.796875,0
564,15008.8125,23.62,-31.0,3.0,57.0,32.31,0.251111,65.2,0.796875,0
565,15008.828125,20.61,-31.0,3.0,57.0,32.31,0.251111,65.2,0.796875,0
566,15008.84375,18.11,-31.0,3.0,57.0,32.31,0.251111,65.2,0.796875,0
567,15008.859375,16.32,-31.0,3.0,57.0,32.31,0.251111,65.2,0.796875,0
568,15008.875,15.24,-31.0,3.0,58.0,32.31,0.251111,65.2,0.796875,0
569,15008.890625,14.69,-31.0,3.0,58.0,32.31,0.251111,65.2,0.796875,0
570,15008.90625,14.46,-31.0,3.0,57.0,32.31,0.251111,65.2,0.796875,0
571,15008.921875,14.25,-31.0,3.0,57.0,32.31,0.251111,65.2,0.796875,0
572,15008.9375,13.83,-30.0,3.0,58.0,32.31,0.251111,65.2,0.796875,0
573,15008.953125,12.95,-30.0,3.0,58.0,32.31,0.251111,65.2,0.796875,0
574,15008.96875,11.47,-31.0,3.0,57.0,32.31,0.251111,65.2,0.796875,0
575,15008.984375,9.36,-31.0,3.0,57.0,32.31,0.251111,65.2,0.796875,0
576,15009.0,6.8,-31.0,3.0,58.0,32.27,0.251111,65.1,0.796875,0
577,15009.015625,4.17,-31.0,3.0,58.0,32.27,0.251111,65.1,0.796875,0
578,15009.03125,1.84,-30.0,3.0,58.0,32.27,0.251111,65.1,0.796875,0
579,15009.046875,0.06,-30.0,3.0,58.0,32.27,0.251111,65.1,0.796875,0
580,15009.0625,-1.13,-30.0,3.0,58.0,32.27,0.251111,65.1,0.796875,0
581,15009.078125,-1.93,-30.0,3.0,58.0,32.27,0.251111,65.1,0.796875,0
582,15009.09375,-2.69,-30.0,3.0,57.0,32.27,0.251111,65.1,0.796875,0
583,15009.109375,-3.7,-30.0,3.0,57.0,32.27,0.251111,65.1,0.796875,0
584,15009.125,-5.11,-31.0,3.0,58.0,32.27,0.251111,65.1,0.796875,0
585,15009.140625,-6.85,-31.0,3.0,58.0,32.27,0.251111,65.1,0.796875,0
586,15009.15625,-8.69,-31.0,3.0,57.0,32.27,0.251111,65.1,0.796875,0
587,15009.171875,-10.43,-31.0,3.0,57.0,32.27,0.251111,65.1,0.796875,0
588,15009.1875,-11.98,-31.0,3.0,58.0,32.27,0.251111,65.1,0.796875,0
589,15009.203125,-13.35,-31.0,3.0,58.0,32.27,0.251111,65.1,0.796875,0
590,15009.21875,-14.71,-31.0,3.0,57.0,32.27,0.251111,65.1,0.796875,0
591,15009.234375,-16.21,-31.0,3.0,57.0,32.27,0.251111,65.1,0.796875,0
592,15009.25,-18.0,-31.0,3.0,58.0,32.27,0.251111,65.1,0.796875,0
593,15009.265625,-20.07,-31.0,3.0,58.0,32.27,0.251111,65.1,0.796875,0
594,15009.28125,-22.38,-31.0,3.0,57.0,32.27,0.251111,65.1,0.796875,0
595,15009.296875,-24.78,-31.0,3.0,57.0,32.27,0.251111,65.1,0.796875,0
596,15009.3125,-27.11,-31.0,3.0,58.0,32.27,0.251111,65.1,0.796875,0
597,15009.328125,-29.18,-31.0,3.0,58.0,32.27,0.251111,65.1,0.796875,0
598,15009.34375,-30.87,-30.0,3.0,58.0,32.27,0.251111,65.1,0.796875,0
599,15009.359375,-32.21,-30.0,3.0,58.0,32.27,0.251111,65.1,0.796875,0
600,15009.375,-33.33,-31.0,4.0,57.0,32.27,0.251111,65.1,0.796875,0
601,15009.390625,-34.51,-31.0,4.0,57.0,32.27,0.251111,65.1,0.796875,0
602,15009.40625,-36.04,-31.0,3.0,57.0,32.27,0.251111,65.1,0.796875,0
603,15009.421875,-38.2,-31.0,3.0,57.0,32.27,0.251111,65.1,0.796875,0
604,15009.4375,-41.0,-31.0,3.0,58.0,32.27,0.251111,65.1,0.796875,0
605,15009.453125,-44.14,-31.0,3.0,58.0,32.27,0.251111,65.1,0.796875,0
606,15009.46875,-46.96,-31.0,3.0,57.0,32.27,0.251111,65.1,0.796875,0
607,15009.484375,-48.56,-31.0,3.0,57.0,32.27,0.251111,65.1,1.015625,0
608,15009.5,-48.08,-31.0,3.0,57.0,32.27,0.249829,65.1,1.015625,0
609,15009.515625,-44.93,-31.0,3.0,57.0,32.27,0.249829,65.1,1.015625,0
610,15009.53125,-39.09,-31.0,3.0,57.0,32.27,0.249829,65.1,1.015625,0
611,15009.546875,-31.16,-31.0,3.0,57.0,32.27,0.249829,65.1,1.015625,0
612,15009.5625,-22.18,-31.0,3.0,58.0,32.27,0.249829,65.1,1.015625,0
613,15009.578125,-13.35,-31.0,3.0,58.0,32.27,0.249829,65.1,1.015625,0
614,15009.59375,-5.58,-31.0,3.0,57.0,32.27,0.249829,65.1,1.015625,0
615,15009.609375,0.75,-31.0,3.0,57.0,32.27,0.249829,65.1,1.015625,0
616,15009.625,5.8,-31.0,3.0,58.0,32.27,0.249829,65.1,1.015625,0
617,15009.640625,10.07,-31.0,3.0,58.0,32.27,0.249829,65.1,1.015625,0
618,15009.65625,14.15,-31.0,3.0,58.0,32.27,0.249829,65.1,1.015625,0
619,15009.671875,18.44,-31.0,3.0,58.0,32.27,0.249829,65.1,1.015625,0
620,15009.6875,23.05,-31.0,3.0,58.0,32.27,0.249829,65.1,1.015625,0
621,15009.703125,27.84,-31.0,3.0,58.0,32.27,0.249829,65.1,1.015625,0
622,15009.71875,32.52,-31.0,3.0,57.0,32.27,0.249829,65.1,1.015625,0
623,15009.734375,36.66,-31.0,3.0,57.0,32.27,0.249829,65.1,1.015625,0
624,15009.75,39.83,-31.0,3.0,58.0,32.27,0.251111,65.1,1.015625,0
625,15009.765625,41.71,-31.0,3.0,58.0,32.27,0.251111,65.1,1.015625,0
626,15009.78125,42.11,-31.0,3.0,58.0,32.27,0.251111,65.1,1.015625,0
627,15009.796875,41.1,-31.0,3.0,58.0,32.27,0.251111,65.1,1.015625,0
628,15009.8125,38.96,-31.0,3.0,57.0,32.27,0.251111,65.1,1.015625,0
629,15009.828125,36.16,-31.0,3.0,57.0,32.27,0.251111,65.1,1.015625,0
630,15009.84375,33.25,-31.0,3.0,57.0,32.27,0.251111,65.1,1.015625,0
631,15009.859375,30.69,-31.0,3.0,57.0,32.27,0.251111,65.1,1.015625,0
632,15009.875,28.77,-31.0,3.0,58.0,32.27,0.251111,65.1,1.015625,0
633,15009.890625,27.59,-31.0,3.0,58.0,32.27,0.251111,65.1,1.015625,0
634,15009.90625,27.06,-31.0,3.0,57.0,32.27,0.251111,65.1,1.015625,0
635,15009.921875,26.9,-31.0,3.0,57.0,32.27,0.251111,65.1,1.015625,0
636,15009.9375,26.75,-31.0,3.0,58.0,32.27,0.251111,65.1,1.015625,0
637,15009.953125,26.26,-31.0,3.0,58.0,32.27,0.251111,65.1,1.015625,0
638,15009.96875,25.18,-31.0,3.0,58.0,32.27,0.251111,65.1,1.015625,0
639,15009.984375,23.45,-31.0,3.0,58.0,32.27,0.251111,65.1,1.015625,0
640,15010.0,21.22,-31.0,3.0,57.0,32.31,0.251111,65.02,1.015625,0
641,15010.015625,18.84,-31.0,3.0,57.0,32.31,0.251111,65.02,1.015625,0
642,15010.03125,16.59,-31.0,3.0,57.0,32.31,0.251111,65.02,1.015625,0
643,15010.046875,14.67,-31.0,3.0,57.0,32.31,0.251111,65.02,1.015625,0
644,15010.0625,13.09,-31.0,3.0,57.0,32.31,0.251111,65.02,1.015625,0
645,15010.078125,11.7,-31.0,3.0,57.0,32.31,0.251111,65.02,1.015625,0
646,15010.09375,10.35,-31.0,3.0,57.0,32.31,0.251111,65.02,1.015625,0
647,15010.109375,8.93,-31.0,3.0,57.0,32.31,0.251111,65.02,1.015625,0
648,15010.125,7.44,-31.0,3.0,57.0,32.31,0.251111,65.02,1.015625,0
649,15010.140625,5.91,-31.0,3.0,57.0,32.31,0.251111,65.02,1.015625,0
650,15010.15625,4.38,-31.0,3.0,57.0,32.31,0.251111,65.02,1.015625,0
651,15010.171875,2.89,-31.0,3.0,57.0,32.31,0.251111,65.02,1.015625,0
652,15010.1875,1.44,-31.0,3.0,57.0,32.31,0.251111,65.02,1.015625,0
653,15010.203125,0.04,-31.0,3.0,57.0,32.31,0.251111,65.02,1.015625,0
654,15010.21875,-1.26,-31.0,3.0,57.0,32.31,0.251111,65.02,1.015625,0
655,15010.234375,-2.44,-31.0,3.0,57.0,32.31,0.251111,65.02,1.015625,0
656,15010.25,-3.48,-31.0,3.0,57.0,32.31,0.248548,65.02,1.015625,0
657,15010.265625,-4.4,-31.0,3.0,57.0,32.31,0.248548,65.02,1.015625,0
658,15010.28125,-5.26,-31.0,3.0,57.0,32.31,0.248548,65.02,1.015625,0
659,15010.296875,-6.1,-31.0,3.0,57.0,32.31,0.248548,65.02,1.015625,0
660,15010.3125,-6.95,-31.0,3.0,57.0,32.31,0.248548,65.02,1.015625,0
661,15010.328125,-7.8,-31.0,3.0,57.0,32.31,0.248548,65.02,1.015625,0
662,15010.34375,-8.68,-31.0,3.0,57.0,32.31,0.248548,65.02,1.015625,0
663,15010.359375,-9.6,-31.0,3.0,57.0,32.31,0.248548,65.02,1.015625,0
664,15010.375,-10.54,-31.0,4.0,57.0,32.31,0.248548,65.02,1.015625,0
665,15010.390625,-11.52,-31.0,4.0,57.0,32.31,0.248548,65.02,1.015625,0
666,15010.40625,-12.46,-31.0,3.0,57.0,32.31,0.248548,65.02,1.015625,0
667,15010.421875,-13.32,-31.0,3.0,57.0,32.31,0.248548,65.02,1.015625,0
668,15010.4375,-14.06,-31.0,3.0,57.0,32.31,0.248548,65.02,1.015625,0
669,15010.453125,-14.75,-31.0,3.0,57.0,32.31,0.248548,65.02,1.015625,0
670,15010.46875,-15.49,-31.0,3.0,57.0,32.31,0.248548,65.02,1.015625,0
671,15010.484375,-16.46,-31.0,3.0,57.0,32.31,0.248548,65.02,1.015625,0
672,15010.5,-17.82,-31.0,3.0,57.0,32.31,0.248548,65.02,1.015625,0
673,15010.515625,-19.61,-31.0,3.0,57.0,32.31,0.248548,65.02,1.015625,0
674,15010.53125,-21.76,-31.0,3.0,57.0,32.31,0.248548,65.02,1.015625,0
675,15010.546875,-24.09,-31.0,3.0,57.0,32.31,0.248548,65.02,1.015625,0
676,15010.5625,-26.37,-31.0,3.0,57.0,32.31,0.248548,65.02,1.015625,0
677,15010.578125,-28.36,-31.0,3.0,57.0,32.31,0.248548,65.02,1.015625,0
678,15010.59375,-29.96,-31.0,3.0,57.0,32.31,0.248548,65.02,1.015625,0
679,15010.609375,-31.23,-31.0,3.0,57.0,32.31,0.248548,65.02,1.015625,0
680,15010.625,-32.4,-31.0,3.0,57.0,32.31,0.248548,65.02,1.015625,0
681,15010.640625,-33.8,-31.0,3.0,57.0,32.31,0.248548,65.02,1.015625,0
682,15010.65625,-35.78,-31.0,4.0,57.0,32.31,0.248548,65.02,1.015625,0
683,15010.671875,-38.44,-31.0,4.0,57.0,32.31,0.248548,65.02,1.015625,0
684,15010.6875,-41.46,-31.0,3.0,57.0,32.31,0.248548,65.02,1.015625,0
685,15010.703125,-44.07,-31.0,3.0,57.0,32.31,0.248548,65.02,1.015625,0
686,15010.71875,-45.21,-31.0,3.0,58.0,32.31,0.248548,65.02,1.015625,0
687,15010.734375,-43.87,-31.0,3.0,58.0,32.31,0.248548,65.02,1.015625,0
688,15010.75,-39.51,-31.0,3.0,57.0,32.31,0.247267,65.02,1.015625,0
689,15010.765625,-32.29,-31.0,3.0,57.0,32.31,0.247267,65.02,1.015625,0
690,15010.78125,-23.08,-31.0,3.0,57.0,32.31,0.247267,65.02,1.015625,0
691,15010.796875,-13.23,-31.0,3.0,57.0,32.31,0.247267,65.02,1.015625,0
692,15010.8125,-4.09,-31.0,3.0,57.0,32.31,0.247267,65.02,1.015625,0
693,15010.828125,3.47,-31.0,3.0,57.0,32.31,0.247267,65.02,1.015625,0
694,15010.84375,9.2,-31.0,3.0,57.0,32.31,0.247267,65.02,1.015625,0
695,15010.859375,13.46,-31.0,3.0,57.0,32.31,0.247267,65.02,1.015625,0
696,15010.875,16.92,-31.0,3.0,57.0,32.31,0.247267,65.02,1.015625,0
697,15010.890625,20.22,-31.0,3.0,57.0,32.31,0.247267,65.02,1.015625,0
698,15010.90625,23.76,-31.0,3.0,57.0,32.31,0.247267,65.02,1.015625,0
699,15010.921875,27.58,-31.0,3.0,57.0,32.31,0.247267,65.02,1.015625,0
700,15010.9375,31.48,-31.0,3.0,58.0,32.31,0.247267,65.02,1.015625,0
701,15010.953125,35.09,-31.0,3.0,58.0,32.31,0.247267,65.02,1.015625,0
702,15010.96875,38.06,-31.0,3.0,57.0,32.31,0.247267,65.02,1.015625,0
703,15010.984375,40.07,-31.0,3.0,57.0,32.31,0.247267,65.02,1.015625,0
704,15011.0,40.96,-31.0,3.0,58.0,32.29,0.247267,64.93,1.015625,0
705,15011.015625,40.64,-31.0,3.0,58.0,32.29,0.247267,64.93,1.015625,0
706,15011.03125,39.21,-31.0,3.0,58.0,32.29,0.247267,64.93,1.015625,0
707,15011.046875,36.94,-31.0,3.0,58.0,32.29,0.247267,64.93,1.015625,0
708,15011.0625,34.21,-31.0,3.0,57.0,32.29,0.247267,64.93,1.015625,0
709,15011.078125,31.48,-31.0,3.0,57.0,32.29,0.247267,64.93,1.015625,0
710,15011.09375,29.16,-31.0,3.0,57.0,32.29,0.247267,64.93,1.015625,0
711,15011.109375,27.47,-31.0,3.0,57.0,32.29,0.247267,64.93,1.015625,0
712,15011.125,26.43,-31.0,3.0,57.0,32.29,0.247267,64.93,1.015625,0
713,15011.140625,25.87,-31.0,3.0,57.0,32.29,0.247267,64.93,1.015625,0
714,15011.15625,25.53,-31.0,3.0,57.0,32.29,0.247267,64.93,1.015625,0
715,15011.171875,25.13,-31.0,3.0,57.0,32.29,0.247267,64.93,1.015625,0
716,15011.1875,24.45,-31.0,3.0,57.0,32.29,0.247267,64.93,1.015625,0
717,15011.203125,23.37,-31.0,3.0,57.0,32.29,0.247267,64.93,1.015625,0
718,15011.21875,21.85,-31.0,3.0,57.0,32.29,0.247267,64.93,1.015625,0
719,15011.234375,19.92,-31.0,3.0,57.0,32.29,0.247267,64.93,1.015625,0
720,15011.25,17.75,-31.0,3.0,57.0,32.29,0.247267,64.93,1.015625,0
721,15011.265625,15.51,-31.0,3.0,57.0,32.29,0.247267,64.93,1.015625,0
722,15011.28125,13.39,-31.0,3.0,57.0,32.29,0.247267,64.93,1.015625,0
723,15011.296875,11.54,-31.0,3.0,57.0,32.29,0.247267,64.93,1.015625,0
724,15011.3125,10.03,-31.0,3.0,57.0,32.29,0.247267,64.93,1.015625,0
725,15011.328125,8.78,-31.0,3.0,57.0,32.29,0.247267,64.93,1.015625,0
726,15011.34375,7.67,-31.0,3.0,57.0,32.29,0.247267,64.93,1.015625,0
727,15011.359375,6.5,-31.0,3.0,57.0,32.29,0.247267,64.93,1.015625,0
728,15011.375,5.12,-31.0,3.0,57.0,32.29,0.247267,64.93,1.015625,0
729,15011.390625,3.46,-31.0,3.0,57.0,32.29,0.247267,64.93,1.015625,0
730,15011.40625,1.54,-31.0,3.0,57.0,32.29,0.247267,64.93,1.015625,0
731,15011.421875,-0.52,-31.0,3.0,57.0,32.29,0.247267,64.93,1.015625,0
732,15011.4375,-2.54,-31.0,4.0,57.0,32.29,0.247267,64.93,1.015625,0
733,15011.453125,-4.32,-31.0,4.0,57.0,32.29,0.247267,64.93,1.015625,0
734,15011.46875,-5.7,-31.0,4.0,58.0,32.29,0.247267,64.93,1.015625,0
735,15011.484375,-6.66,-31.0,4.0,58.0,32.29,0.247267,64.93,1.015625,0
736,15011.5,-7.28,-31.0,3.0,57.0,32.29,0.245986,64.93,1.015625,0
737,15011.515625,-7.79,-31.0,3.0,57.0,32.29,0.245986,64.93,1.015625,0
738,15011.53125,-8.5,-31.0,3.0,57.0,32.29,0.245986,64.93,1.015625,0
739,15011.546875,-9.65,-31.0,3.0,57.0,32.29,0.245986,64.93,1.015625,0
740,15011.5625,-11.33,-31.0,3.0,57.0,32.29,0.245986,64.93,1.015625,0
741,15011.578125,-13.4,-31.0,3.0,57.0,32.29,0.245986,64.93,1.015625,0
742,15011.59375,-15.56,-31.0,3.0,57.0,32.29,0.245986,64.93,1.015625,0
743,15011.609375,-17.48,-31.0,3.0,57.0,32.29,0.245986,64.93,1.015625,0
744,15011.625,-18.92,-31.0,3.0,57.0,32.29,0.245986,64.93,1.015625,0
745,15011.640625,-19.87,-31.0,3.0,57.0,32.29,0.245986,64.93,1.015625,0
746,15011.65625,-20.51,-31.0,4.0,57.0,32.29,0.245986,64.93,1.015625,0
747,15011.671875,-21.15,-31.0,4.0,57.0,32.29,0.245986,64.93,1.015625,0
748,15011.6875,-22.15,-31.0,3.0,57.0,32.29,0.245986,64.93,1.015625,0
749,15011.703125,-23.77,-31.0,3.0,57.0,32.29,0.245986,64.93,1.015625,0
750,15011.71875,-26.11,-31.0,3.0,57.0,32.29,0.245986,64.93,1.015625,0
751,15011.734375,-29.05,-31.0,3.0,57.0,32.29,0.245986,64.93,1.015625,0
752,15011.75,-32.15,-31.0,3.0,57.0,32.29,0.244705,64.93,1.015625,0
753,15011.765625,-34.67,-31.0,3.0,57.0,32.29,0.244705,64.93,1.015625,0
754,15011.78125,-35.7,-31.0,3.0,57.0,32.29,0.244705,64.93,1.015625,0
755,15011.796875,-34.38,-31.0,3.0,57.0,32.29,0.244705,64.93,1.015625,0
756,15011.8125,-30.28,-31.0,3.0,58.0,32.29,0.244705,64.93,1.015625,0
757,15011.828125,-23.58,-31.0,3.0,58.0,32.29,0.244705,64.93,1.015625,0
758,15011.84375,-15.11,-31.0,3.0,57.0,32.29,0.244705,64.93,1.015625,0
759,15011.859375,-6.06,-31.0,3.0,57.0,32.29,0.244705,64.93,1.015625,0
760,15011.875,2.37,-31.0,3.0,57.0,32.29,0.244705,64.93,1.015625,0
761,15011.890625,9.33,-31.0,3.0,57.0,32.29,0.244705,64.93,1.015625,0
762,15011.90625,14.49,-31.0,3.0,57.0,32.29,0.244705,64.93,1.015625,0
763,15011.921875,17.98,-31.0,3.0,57.0,32.29,0.244705,64.93,1.015625,0
764,15011.9375,20.23,-31.0,3.0,57.0,32.29,0.244705,64.93,1.015625,0
765,15011.953125,21.62,-31.0,3.0,57.0,32.29,0.244705,64.93,1.015625,0
766,15011.96875,22.42,-31.0,3.0,57.0,32.29,0.244705,64.93,1.015625,0
767,15011.984375,22.75,-31.0,3.0,57.0,32.29,0.244705,64.93,1.015625,0
768,15012.0,22.56,-31.0,3.0,57.0,32.29,0.244705,64.85,1.015625,0
769,15012.015625,21.82,-31.0,3.0,57.0,32.29,0.244705,64.85,1.015625,0
770,15012.03125,20.56,-31.0,3.0,57.0,32.29,0.244705,64.85,1.015625,0
771,15012.046875,18.92,-31.0,3.0,57.0,32.29,0.244705,64.85,1.015625,0
772,15012.0625,17.15,-31.0,3.0,57.0,32.29,0.244705,64.85,1.015625,0
773,15012.078125,15.52,-31.0,3.0,57.0,32.29,0.244705,64.85,1.015625,0
774,15012.09375,14.2,-31.0,3.0,58.0,32.29,0.244705,64.85,1.015625,0
775,15012.109375,13.26,-31.0,3.0,58.0,32.29,0.244705,64.85,1.015625,0
776,15012.125,12.62,-31.0,3.0,58.0,32.29,0.244705,64.85,1.015625,0
777,15012.140625,12.12,-31.0,3.0,58.0,32.29,0.244705,64.85,1.015625,0
778,15012.15625,11.6,-31.0,3.0,57.0,32.29,0.244705,64.85,1.015625,0
779,15012.171875,11.01,-31.0,3.0,57.0,32.29,0.244705,64.85,1.015625,0
780,15012.1875,10.33,-31.0,3.0,57.0,32.29,0.244705,64.85,1.015625,0
781,15012.203125,9.58,-31.0,3.0,57.0,32.29,0.244705,64.85,1.015625,0
782,15012.21875,8.72,-31.0,3.0,57.0,32.29,0.244705,64.85,1.015625,0
783,15012.234375,7.62,-31.0,3.0,57.0,32.29,0.244705,64.85,1.015625,0
784,15012.25,6.12,-31.0,3.0,57.0,32.29,0.244705,64.85,1.015625,0
785,15012.265625,4.12,-31.0,3.0,57.0,32.29,0.244705,64.85,1.015625,0
786,15012.28125,1.67,-31.0,3.0,57.0,32.29,0.244705,64.85,1.015625,0
787,15012.296875,-0.98,-31.0,3.0,57.0,32.29,0.244705,64.85,1.015625,0
788,15012.3125,-3.5,-31.0,3.0,58.0,32.29,0.244705,64.85,1.015625,0
789,15012.328125,-5.62,-31.0,3.0,58.0,32.29,0.244705,64.85,1.015625,0
790,15012.34375,-7.17,-31.0,3.0,57.0,32.29,0.244705,64.85,1.015625,0
791,15012.359375,-8.29,-31.0,3.0,57.0,32.29,0.244705,64.85,1.015625,0
792,15012.375,-9.28,-31.0,3.0,58.0,32.29,0.244705,64.85,1.015625,0
793,15012.390625,-10.5,-31.0,3.0,58.0,32.29,0.244705,64.85,1.015625,0
794,15012.40625,-12.22,-31.0,3.0,57.0,32.29,0.244705,64.85,1.015625,0
795,15012.421875,-14.45,-31.0,3.0,57.0,32.29,0.244705,64.85,1.015625,0
796,15012.4375,-17.0,-31.0,3.0,57.0,32.29,0.244705,64.85,1.015625,0
797,15012.453125,-19.52,-31.0,3.0,57.0,32.29,0.244705,64.85,1.015625,0
798,15012.46875,-21.68,-31.0,3.0,57.0,32.29,0.244705,64.85,1.015625,0
799,15012.484375,-23.28,-31.0,3.0,57.0,32.29,0.244705,64.85,1.015625,0
800,15012.5,-24.28,-31.0,3.0,57.0,32.29,0.243424,64.85,1.015625,0
801,15012.515625,-24.85,-31.0,3.0,57.0,32.29,0.243424,64.85,1.015625,0
802,15012.53125,-25.31,-31.0,3.0,57.0,32.29,0.243424,64.85,1.015625,0
803,15012.546875,-26.03,-31.0,3.0,57.0,32.29,0.243424,64.85,1.015625,0
804,15012.5625,-27.38,-31.0,3.0,57.0,32.29,0.243424,64.85,1.015625,0
805,15012.578125,-29.55,-31.0,3.0,57.0,32.29,0.243424,64.85,1.015625,0
806,15012.59375,-32.4,-31.0,3.0,57.0,32.29,0.243424,64.85,1.015625,0
807,15012.609375,-35.39,-31.0,3.0,57.0,32.29,0.243424,64.85,1.015625,0
808,15012.625,-37.58,-31.0,3.0,58.0,32.29,0.243424,64.85,1.015625,0
809,15012.640625,-37.9,-31.0,3.0,58.0,32.29,0.243424,64.85,1.015625,0
810,15012.65625,-35.51,-31.0,3.0,57.0,32.29,0.243424,64.85,1.015625,0
811,15012.671875,-30.1,-31.0,3.0,57.0,32.29,0.243424,64.85,1.015625,0
812,15012.6875,-22.1,-31.0,4.0,58.0,32.29,0.243424,64.85,1.015625,0
813,15012.703125,-12.56,-31.0,4.0,58.0,32.29,0.243424,64.85,1.015625,0
814,15012.71875,-2.83,-31.0,3.0,57.0,32.29,0.243424,64.85,1.015625,0
815,15012.734375,5.93,-31.0,3.0,57.0,32.29,0.243424,64.85,1.015625,0
816,15012.75,13.04,-31.0,3.0,57.0,32.29,0.244705,64.85,1.015625,0
817,15012.765625,18.41,-31.0,3.0,57.0,32.29,0.244705,64.85,1.015625,0
818,15012.78125,22.37,-31.0,3.0,58.0,32.29,0.244705,64.85,1.015625,0
819,15012.796875,25.41,-31.0,3.0,58.0,32.29,0.244705,64.85,1.015625,0
820,15012.8125,27.95,-31.0,3.0,57.0,32.29,0.244705,64.85,1.015625,0
821,15012.828125,30.19,-31.0,3.0,57.0,32.29,0.244705,64.85,1.015625,0
822,15012.84375,32.18,-31.0,3.0,57.0,32.29,0.244705,64.85,1.015625,0
823,15012.859375,33.84,-31.0,3.0,57.0,32.29,0.244705,64.85,1.015625,0
824,15012.875,35.08,-31.0,3.0,57.0,32.29,0.244705,64.85,1.015625,0
825,15012.890625,35.79,-31.0,3.0,57.0,32.29,0.244705,64.85,1.015625,0
826,15012.90625,35.88,-31.0,3.0,58.0,32.29,0.244705,64.85,1.015625,0
827,15012.921875,35.27,-31.0,3.0,58.0,32.29,0.244705,64.85,1.015625,0
828,15012.9375,33.97,-31.0,3.0,57.0,32.29,0.244705,64.85,1.015625,0
829,15012.953125,32.04,-31.0,3.0,57.0,32.29,0.244705,64.85,1.015625,0
830,15012.96875,29.73,-31.0,3.0,57.0,32.29,0.244705,64.85,1.015625,0
831,15012.984375,27.28,-31.0,3.0,57.0,32.29,0.244705,64.85,1.015625,0
832,15013.0,24.96,-31.0,3.0,57.0,32.29,0.243424,64.77,1.015625,0
833,15013.015625,22.94,-31.0,3.0,57.0,32.29,0.243424,64.77,1.015625,0
834,15013.03125,21.34,-31.0,3.0,57.0,32.29,0.243424,64.77,1.015625,0
835,15013.046875,20.14,-31.0,3.0,57.0,32.29,0.243424,64.77,1.015625,0
836,15013.0625,19.28,-31.0,3.0,57.0,32.29,0.243424,64.77,1.015625,0
837,15013.078125,18.64,-31.0,3.0,57.0,32.29,0.243424,64.77,1.015625,0
838,15013.09375,18.0,-31.0,3.0,58.0,32.29,0.243424,64.77,1.015625,0
839,15013.109375,17.1,-31.0,3.0,58.0,32.29,0.243424,64.77,1.015625,0
840,15013.125,15.69,-31.0,3.0,57.0,32.29,0.243424,64.77,1.015625,0
841,15013.140625,13.58,-31.0,3.0,57.0,32.29,0.243424,64.77,1.015625,0
842,15013.15625,10.75,-31.0,3.0,57.0,32.29,0.243424,64.77,1.015625,0
843,15013.171875,7.41,-31.0,3.0,57.0,32.29,0.243424,64.77,1.015625,0
844,15013.1875,3.93,-31.0,3.0,57.0,32.29,0.243424,64.77,1.015625,0
845,15013.203125,0.74,-31.0,3.0,57.0,32.29,0.243424,64.77,1.015625,0
846,15013.21875,-1.85,-31.0,3.0,57.0,32.29,0.243424,64.77,1.015625,0
847,15013.234375,-3.76,-31.0,3.0,57.0,32.29,0.243424,64.77,1.015625,0
848,15013.25,-5.2,-31.0,3.0,57.0,32.29,0.243424,64.77,1.015625,0
849,15013.265625,-6.54,-31.0,3.0,57.0,32.29,0.243424,64.77,1.015625,0
850,15013.28125,-8.14,-31.0,3.0,57.0,32.29,0.243424,64.77,1.015625,0
851,15013.296875,-10.22,-31.0,3.0,57.0,32.29,0.243424,64.77,1.015625,0
852,15013.3125,-12.75,-30.0,3.0,57.0,32.29,0.243424,64.77,1.015625,0
853,15013.328125,-15.5,-30.0,3.0,57.0,32.29,0.243424,64.77,1.015625,0
854,15013.34375,-18.15,-31.0,3.0,57.0,32.29,0.243424,64.77,1.015625,0
855,15013.359375,-20.43,-31.0,3.0,57.0,32.29,0.243424,64.77,1.015625,0
856,15013.375,-22.25,-31.0,3.0,57.0,32.29,0.243424,64.77,1.015625,0
857,15013.390625,-23.71,-31.0,3.0,57.0,32.29,0.243424,64.77,1.015625,0
858,15013.40625,-25.08,-31.0,3.0,57.0,32.29,0.243424,64.77,1.015625,0
859,15013.421875,-26.66,-31.0,3.0,57.0,32.29,0.243424,64.77,1.015625,0
860,15013.4375,-28.69,-31.0,3.0,58.0,32.29,0.243424,64.77,1.015625,0
861,15013.453125,-31.38,-31.0,3.0,58.0,32.29,0.243424,64.77,1.015625,0
862,15013.46875,-34.72,-31.0,3.0,57.0,32.29,0.243424,64.77,1.015625,0
863,15013.484375,-38.42,-31.0,3.0,57.0,32.29,0.243424,64.77,1.015625,0
864,15013.5,-41.9,-31.0,3.0,58.0,32.29,0.243424,64.77,1.015625,0
865,15013.515625,-44.2,-31.0,3.0,58.0,32.29,0.243424,64.77,1.015625,0
866,15013.53125,-44.24,-31.0,3.0,58.0,32.29,0.243424,64.77,1.015625,0
867,15013.546875,-41.17,-31.0,3.0,58.0,32.29,0.243424,64.77,1.015625,0
868,15013.5625,-34.76,-31.0,3.0,57.0,32.29,0.243424,64.77,1.015625,0
869,15013.578125,-25.53,-31.0,3.0,57.0,32.29,0.243424,64.77,1.015625,0
870,15013.59375,-14.78,-31.0,3.0,57.0,32.29,0.243424,64.77,1.015625,0
871,15013.609375,-4.07,-31.0,3.0,57.0,32.29,0.243424,64.77,1.015625,0
872,15013.625,5.27,-31.0,3.0,58.0,32.29,0.243424,64.77,1.015625,0
873,15013.640625,12.48,-31.0,3.0,58.0,32.29,0.243424,64.77,1.015625,0
874,15013.65625,17.56,-31.0,3.0,57.0,32.29,0.243424,64.77,1.015625,0
875,15013.671875,21.03,-31.0,3.0,57.0,32.29,0.243424,64.77,1.015625,0
876,15013.6875,23.62,-31.0,4.0,58.0,32.29,0.243424,64.77,1.015625,0
877,15013.703125,25.91,-31.0,4.0,58.0,32.29,0.243424,64.77,1.015625,0
878,15013.71875,28.23,-31.0,4.0,57.0,32.29,0.243424,64.77,1.015625,0
879,15013.734375,30.7,-31.0,4.0,57.0,32.29,0.243424,64.77,1.015625,0
880,15013.75,33.22,-31.0,3.0,57.0,32.29,0.240861,64.77,1.015625,0
881,15013.765625,35.64,-31.0,3.0,57.0,32.29,0.240861,64.77,1.015625,0
882,15013.78125,37.67,-31.0,3.0,57.0,32.29,0.240861,64.77,1.015625,0
883,15013.796875,38.99,-31.0,3.0,57.0,32.29,0.240861,64.77,1.015625,0
884,15013.8125,39.29,-31.0,3.0,57.0,32.29,0.240861,64.77,1.015625,0
885,15013.828125,38.41,-31.0,3.0,57.0,32.29,0.240861,64.77,1.015625,0
886,15013.84375,36.35,-31.0,3.0,57.0,32.29,0.240861,64.77,1.015625,0
887,15013.859375,33.4,-31.0,3.0,57.0,32.29,0.240861,64.77,1.015625,0
888,15013.875,30.03,-31.0,3.0,58.0,32.29,0.240861,64.77,1.015625,0
889,15013.890625,26.78,-31.0,3.0,58.0,32.29,0.240861,64.77,1.015625,0
890,15013.90625,24.06,-31.0,3.0,57.0,32.29,0.240861,64.77,1.015625,0
891,15013.921875,22.1,-31.0,3.0,57.0,32.29,0.240861,64.77,1.015625,0
892,15013.9375,20.88,-31.0,3.0,57.0,32.29,0.240861,64.77,1.015625,0
893,15013.953125,20.16,-31.0,3.0,57.0,32.29,0.240861,64.77,1.015625,0
894,15013.96875,19.58,-31.0,3.0,57.0,32.29,0.240861,64.77,1.015625,0
895,15013.984375,18.79,-31.0,3.0,57.0,32.29,0.240861,64.77,1.015625,0
896,15014.0,17.54,-31.0,3.0,58.0,32.29,0.242142,64.68,1.015625,0
897,15014.015625,15.77,-31.0,3.0,58.0,32.29,0.242142,64.68,1.015625,0
898,15014.03125,13.59,-31.0,3.0,57.0,32.29,0.242142,64.68,1.015625,0
899,15014.046875,11.21,-31.0,3.0,57.0,32.29,0.242142,64.68,1.015625,0
900,15014.0625,8.82,-31.0,3.0,57.0,32.29,0.242142,64.68,1.015625,0
901,15014.078125,6.58,-31.0,3.0,57.0,32.29,0.242142,64.68,1.015625,0
902,15014.09375,4.5,-31.0,3.0,57.0,32.29,0.242142,64.68,1.015625,0
903,15014.109375,2.47,-31.0,3.0,57.0,32.29,0.242142,64.68,1.015625,0
904,15014.125,0.39,-31.0,3.0,57.0,32.29,0.242142,64.68,1.015625,0
905,15014.140625,-1.79,-31.0,3.0,57.0,32.29,0.242142,64.68,1.015625,0
906,15014.15625,-4.02,-31.0,3.0,57.0,32.29,0.242142,64.68,1.015625,0
907,15014.171875,-6.11,-31.0,3.0,57.0,32.29,0.242142,64.68,1.015625,0
908,15014.1875,-7.92,-31.0,3.0,57.0,32.29,0.242142,64.68,1.015625,0
909,15014.203125,-9.4,-31.0,3.0,57.0,32.29,0.242142,64.68,1.015625,0
910,15014.21875,-10.68,-31.0,3.0,58.0,32.29,0.242142,64.68,1.015625,0
911,15014.234375,-12.02,-31.0,3.0,58.0,32.29,0.242142,64.68,1.015625,0
912,15014.25,-13.67,-31.0,3.0,57.0,32.29,0.242142,64.68,1.015625,0
913,15014.265625,-15.8,-31.0,3.0,57.0,32.29,0.242142,64.68,1.015625,0
914,15014.28125,-18.33,-31.0,4.0,57.0,32.29,0.242142,64.68,1.015625,0
915,15014.296875,-21.02,-31.0,4.0,57.0,32.29,0.242142,64.68,1.015625,0
916,15014.3125,-23.58,-31.0,3.0,58.0,32.29,0.242142,64.68,1.015625,0
917,15014.328125,-25.76,-31.0,3.0,58.0,32.29,0.242142,64.68,1.015625,0
918,15014.34375,-27.48,-31.0,3.0,58.0,32.29,0.242142,64.68,1.015625,0
919,15014.359375,-28.8,-31.0,3.0,58.0,32.29,0.242142,64.68,1.015625,0
920,15014.375,-29.95,-31.0,3.0,58.0,32.29,0.242142,64.68,1.015625,0
921,15014.390625,-31.22,-31.0,3.0,58.0,32.29,0.242142,64.68,1.015625,0
922,15014.40625,-32.96,-30.0,3.0,57.0,32.29,0.242142,64.68,1.015625,0
923,15014.421875,-35.36,-30.0,3.0,57.0,32.29,0.242142,64.68,1.015625,0
924,15014.4375,-38.4,-31.0,3.0,57.0,32.29,0.242142,64.68,1.015625,0
925,15014.453125,-41.59,-31.0,3.0,57.0,32.29,0.242142,64.68,1.015625,0
926,15014.46875,-44.04,-31.0,3.0,57.0,32.29,0.242142,64.68,1.015625,0
927,15014.484375,-44.57,-31.0,3.0,57.0,32.29,0.242142,64.68,0.953125,0
928,15014.5,-42.09,-31.0,3.0,57.0,32.29,0.240861,64.68,0.953125,0
929,15014.515625,-36.14,-31.0,3.0,57.0,32.29,0.240861,64.68,0.953125,0
930,15014.53125,-27.09,-31.0,3.0,57.0,32.29,0.240861,64.68,0.953125,0
931,15014.546875,-16.13,-31.0,3.0,57.0,32.29,0.240861,64.68,0.953125,0
932,15014.5625,-4.95,-31.0,3.0,57.0,32.29,0.240861,64.68,0.953125,0
933,15014.578125,4.92,-31.0,3.0,57.0,32.29,0.240861,64.68,0.953125,0
934,15014.59375,12.57,-31.0,3.0,57.0,32.29,0.240861,64.68,0.953125,0
935,15014.609375,17.88,-31.0,3.0,57.0,32.29,0.240861,64.68,0.953125,0
936,15014.625,21.44,-31.0,3.0,57.0,32.29,0.240861,64.68,0.953125,0
937,15014.640625,24.11,-31.0,3.0,57.0,32.29,0.240861,64.68,0.953125,0
938,15014.65625,26.52,-31.0,3.0,57.0,32.29,0.240861,64.68,0.953125,0
939,15014.671875,29.02,-31.0,3.0,57.0,32.29,0.240861,64.68,0.953125,0
940,15014.6875,31.55,-31.0,3.0,57.0,32.29,0.240861,64.68,0.953125,0
941,15014.703125,33.89,-31.0,3.0,57.0,32.29,0.240861,64.68,0.953125,0
942,15014.71875,35.85,-31.0,3.0,57.0,32.29,0.240861,64.68,0.953125,0
943,15014.734375,37.3,-31.0,3.0,57.0,32.29,0.240861,64.68,0.953125,0
944,15014.75,38.14,-31.0,3.0,57.0,32.29,0.240861,64.68,0.953125,0
945,15014.765625,38.29,-31.0,3.0,57.0,32.29,0.240861,64.68,0.953125,0
946,15014.78125,37.62,-31.0,3.0,57.0,32.29,0.240861,64.68,0.953125,0
947,15014.796875,36.03,-31.0,3.0,57.0,32.29,0.240861,64.68,0.953125,0
948,15014.8125,33.59,-31.0,3.0,58.0,32.29,0.240861,64.68,0.953125,0
949,15014.828125,30.52,-31.0,3.0,58.0,32.29,0.240861,64.68,0.953125,0
950,15014.84375,27.21,-31.0,3.0,57.0,32.29,0.240861,64.68,0.953125,0
951,15014.859375,24.14,-31.0,3.0,57.0,32.29,0.240861,64.68,0.953125,0
952,15014.875,21.68,-31.0,3.0,57.0,32.29,0.240861,64.68,0.953125,0
953,15014.890625,20.0,-31.0,3.0,57.0,32.29,0.240861,64.68,0.953125,0
954,15014.90625,19.02,-31.0,3.0,57.0,32.29,0.240861,64.68,0.953125,0
955,15014.921875,18.45,-31.0,3.0,57.0,32.29,0.240861,64.68,0.953125,0
956,15014.9375,17.91,-31.0,3.0,57.0,32.29,0.240861,64.68,0.953125,0
957,15014.953125,17.11,-31.0,3.0,57.0,32.29,0.240861,64.68,0.953125,0
958,15014.96875,15.88,-31.0,3.0,57.0,32.29,0.240861,64.68,0.953125,0
959,15014.984375,14.19,-31.0,3.0,57.0,32.29,0.240861,64.68,0.953125,0
960,15015.0,12.2,-31.0,4.0,57.0,32.27,0.240861,64.6,0.953125,0
961,15015.015625,10.1,-31.0,4.0,57.0,32.27,0.240861,64.6,0.953125,0
962,15015.03125,8.1,-31.0,3.0,58.0,32.27,0.240861,64.6,0.953125,0
963,15015.046875,6.31,-31.0,3.0,58.0,32.27,0.240861,64.6,0.953125,0
964,15015.0625,4.77,-31.0,3.0,57.0,32.27,0.240861,64.6,0.953125,0
965,15015.078125,3.37,-31.0,3.0,57.0,32.27,0.240861,64.6,0.953125,0
966,15015.09375,1.99,-31.0,3.0,57.0,32.27,0.240861,64.6,0.953125,0
967,15015.109375,0.43,-31.0,3.0,57.0,32.27,0.240861,64.6,0.953125,0
968,15015.125,-1.45,-31.0,3.0,57.0,32.27,0.240861,64.6,0.953125,0
969,15015.140625,-3.63,-31.0,3.0,57.0,32.27,0.240861,64.6,0.953125,0
970,15015.15625,-5.97,-31.0,3.0,57.0,32.27,0.240861,64.6,0.953125,0
971,15015.171875,-8.22,-31.0,3.0,57.0,32.27,0.240861,64.6,0.953125,0
972,15015.1875,-10.17,-31.0,3.0,57.0,32.27,0.240861,64.6,0.953125,0
973,15015.203125,-11.7,-31.0,3.0,57.0,32.27,0.240861,64.6,0.953125,0
974,15015.21875,-12.9,-31.0,3.0,58.0,32.27,0.240861,64.6,0.953125,0
975,15015.234375,-13.96,-31.0,3.0,58.0,32.27,0.240861,64.6,0.953125,0
976,15015.25,-15.15,-31.0,3.0,57.0,32.27,0.23958,64.6,0.953125,0
977,15015.265625,-16.66,-31.0,3.0,57.0,32.27,0.23958,64.6,0.953125,0
978,15015.28125,-18.51,-31.0,3.0,58.0,32.27,0.23958,64.6,0.953125,0
979,15015.296875,-20.56,-31.0,3.0,58.0,32.27,0.23958,64.6,0.953125,0
980,15015.3125,-22.54,-31.0,3.0,57.0,32.27,0.23958,64.6,0.953125,0
981,15015.328125,-24.23,-31.0,3.0,57.0,32.27,0.23958,64.6,0.953125,0
982,15015.34375,-25.51,-31.0,3.0,58.0,32.27,0.23958,64.6,0.953125,0
983,15015.359375,-26.43,-31.0,3.0,58.0,32.27,0.23958,64.6,0.953125,0
984,15015.375,-27.18,-31.0,3.0,57.0,32.27,0.23958,64.6,0.953125,0
985,15015.390625,-28.05,-31.0,3.0,57.0,32.27,0.23958,64.6,0.953125,0
986,15015.40625,-29.36,-31.0,3.0,57.0,32.27,0.23958,64.6,0.953125,0
987,15015.421875,-31.32,-31.0,3.0,57.0,32.27,0.23958,64.6,0.953125,0
988,15015.4375,-33.97,-31.0,3.0,57.0,32.27,0.23958,64.6,0.953125,0
989,15015.453125,-36.93,-31.0,3.0,57.0,32.27,0.23958,64.6,0.953125,0
990,15015.46875,-39.46,-31.0,3.0,57.0,32.27,0.23958,64.6,0.953125,0
991,15015.484375,-40.53,-31.0,3.0,57.0,32.27,0.23958,64.6,1.0,0
992,15015.5,-39.15,-31.0,3.0,57.0,32.27,0.23958,64.6,1.0,0
993,15015.515625,-34.64,-31.0,3.0,57.0,32.27,0.23958,64.6,1.0,0
994,15015.53125,-27.05,-31.0,3.0,57.0,32.27,0.23958,64.6,1.0,0
995,15015.546875,-17.18,-31.0,3.0,57.0,32.27,0.23958,64.6,1.0,0
996,15015.5625,-6.35,-31.0,3.0,57.0,32.27,0.23958,64.6,1.0,0
997,15015.578125,3.92,-31.0,3.0,57.0,32.27,0.23958,64.6,1.0,0
998,15015.59375,12.44,-31.0,3.0,57.0,32.27,0.23958,64.6,1.0,0
999,15015.609375,18.61,-31.0,3.0,57.0,32.27,0.23958,64.6,1.0,0
1000,15015.625,22.49,-31.0,3.0,57.0,32.27,0.23958,64.6,1.0,0
1001,15015.640625,24.66,-31.0,3.0,57.0,32.27,0.23958,64.6,1.0,0
1002,15015.65625,25.87,-31.0,3.0,57.0,32.27,0.23958,64.6,1.0,0
1003,15015.671875,26.82,-31.0,3.0,57.0,32.27,0.23958,64.6,1.0,0
1004,15015.6875,27.85,-31.0,3.0,57.0,32.27,0.23958,64.6,1.0,0
1005,15015.703125,29.05,-31.0,3.0,57.0,32.27,0.23958,64.6,1.0,0
1006,15015.71875,30.19,-31.0,3.0,58.0,32.27,0.23958,64.6,1.0,0
1007,15015.734375,31.03,-31.0,3.0,58.0,32.27,0.23958,64.6,1.0,0
1008,15015.75,31.34,-31.0,3.0,57.0,32.27,0.238299,64.6,1.0,0
1009,15015.765625,31.04,-31.0,3.0,57.0,32.27,0.238299,64.6,1.0,0
1010,15015.78125,30.16,-31.0,3.0,57.0,32.27,0.238299,64.6,1.0,0
1011,15015.796875,28.76,-31.0,3.0,57.0,32.27,0.238299,64.6,1.0,0
1012,15015.8125,26.97,-31.0,3.0,57.0,32.27,0.238299,64.6,1.0,0
1013,15015.828125,24.93,-31.0,3.0,57.0,32.27,0.238299,64.6,1.0,0
1014,15015.84375,22.84,-31.0,3.0,57.0,32.27,0.238299,64.6,1.0,0
1015,15015.859375,20.89,-31.0,3.0,57.0,32.27,0.238299,64.6,1.0,0
1016,15015.875,19.28,-31.0,3.0,57.0,32.27,0.238299,64.6,1.0,0
1017,15015.890625,18.12,-31.0,3.0,57.0,32.27,0.238299,64.6,1.0,0
1018,15015.90625,17.35,-31.0,3.0,57.0,32.27,0.238299,64.6,1.0,0
1019,15015.921875,16.75,-31.0,3.0,57.0,32.27,0.238299,64.6,1.0,0
1020,15015.9375,16.04,-31.0,3.0,57.0,32.27,0.238299,64.6,1.0,0
1021,15015.953125,14.99,-31.0,3.0,57.0,32.27,0.238299,64.6,1.0,0
1022,15015.96875,13.48,-31.0,3.0,58.0,32.27,0.238299,64.6,1.0,0
1023,15015.984375,11.61,-31.0,3.0,58.0,32.27,0.238299,64.6,1.0,0
1024,15016.0,9.52,-31.0,3.0,57.0,32.29,0.237018,64.48,1.0,0
1025,15016.015625,7.43,-31.0,3.0,57.0,32.29,0.237018,64.48,1.0,0
1026,15016.03125,5.52,-31.0,3.0,58.0,32.29,0.237018,64.48,1.0,0
1027,15016.046875,3.84,-31.0,3.0,58.0,32.29,0.237018,64.48,1.0,0
1028,15016.0625,2.36,-31.0,3.0,57.0,32.29,0.237018,64.48,1.0,0
1029,15016.078125,0.99,-31.0,3.0,57.0,32.29,0.237018,64.48,1.0,0
1030,15016.09375,-0.38,-31.0,3.0,57.0,32.29,0.237018,64.48,1.0,0
1031,15016.109375,-1.83,-31.0,3.0,57.0,32.29,0.237018,64.48,1.0,0
1032,15016.125,-3.35,-31.0,3.0,57.0,32.29,0.237018,64.48,1.0,0
1033,15016.140625,-4.9,-31.0,3.0,57.0,32.29,0.237018,64.48,1.0,0
1034,15016.15625,-6.42,-31.0,3.0,57.0,32.29,0.237018,64.48,1.0,0
1035,15016.171875,-7.91,-31.0,3.0,57.0,32.29,0.237018,64.48,1.0,0
1036,15016.1875,-9.45,-31.0,3.0,57.0,32.29,0.237018,64.48,1.0,0
1037,15016.203125,-11.16,-31.0,3.0,57.0,32.29,0.237018,64.48,1.0,0
1038,15016.21875,-13.1,-31.0,3.0,57.0,32.29,0.237018,64.48,1.0,0
1039,15016.234375,-15.23,-31.0,3.0,57.0,32.29,0.237018,64.48,1.0,0
1040,15016.25,-17.39,-31.0,3.0,57.0,32.29,0.238299,64.48,1.0,0
1041,15016.265625,-19.32,-31.0,3.0,57.0,32.29,0.238299,64.48,1.0,0
1042,15016.28125,-20.85,-31.0,3.0,57.0,32.29,0.238299,64.48,1.0,0
1043,15016.296875,-21.88,-31.0,3.0,57.0,32.29,0.238299,64.48,1.0,0
1044,15016.3125,-22.51,-31.0,3.0,57.0,32.29,0.238299,64.48,1.0,0
1045,15016.328125,-23.02,-31.0,3.0,57.0,32.29,0.238299,64.48,1.0,0
1046,15016.34375,-23.73,-31.0,3.0,57.0,32.29,0.238299,64.48,1.0,0
1047,15016.359375,-24.93,-31.0,3.0,57.0,32.29,0.238299,64.48,1.0,0
1048,15016.375,-26.75,-31.0,3.0,57.0,32.29,0.238299,64.48,1.0,0
1049,15016.390625,-29.07,-31.0,3.0,57.0,32.29,0.238299,64.48,1.0,0
1050,15016.40625,-31.35,-31.0,3.0,57.0,32.29,0.238299,64.48,1.0,0
1051,15016.421875,-32.81,-31.0,3.0,57.0,32.29,0.238299,64.48,0.9375,0
1052,15016.4375,-32.53,-31.0,3.0,57.0,32.29,0.238299,64.48,0.9375,0
1053,15016.453125,-29.83,-31.0,3.0,57.0,32.29,0.238299,64.48,0.9375,0
1054,15016.46875,-24.51,-31.0,3.0,57.0,32.29,0.238299,64.48,0.9375,0
1055,15016.484375,-17.06,-31.0,3.0,57.0,32.29,0.238299,64.48,0.9375,0
1056,15016.5,-8.53,-31.0,3.0,57.0,32.29,0.237018,64.48,0.9375,0
1057,15016.515625,-0.13,-31.0,3.0,57.0,32.29,0.237018,64.48,0.9375,0
1058,15016.53125,7.05,-31.0,3.0,57.0,32.29,0.237018,64.48,0.9375,0
1059,15016.546875,12.45,-31.0,3.0,57.0,32.29,0.237018,64.48,0.9375,0
1060,15016.5625,16.04,-31.0,3.0,57.0,32.29,0.237018,64.48,0.9375,0
1061,15016.578125,18.19,-31.0,3.0,57.0,32.29,0.237018,64.48,0.9375,0
1062,15016.59375,19.34,-31.0,3.0,58.0,32.29,0.237018,64.48,0.9375,0
1063,15016.609375,19.8,-31.0,3.0,58.0,32.29,0.237018,64.48,0.9375,0
1064,15016.625,19.7,-31.0,4.0,57.0,32.29,0.237018,64.48,0.9375,0
1065,15016.640625,19.04,-31.0,4.0,57.0,32.29,0.237018,64.48,0.9375,0
1066,15016.65625,17.87,-31.0,3.0,57.0,32.29,0.237018,64.48,0.9375,0
1067,15016.671875,16.39,-31.0,3.0,57.0,32.29,0.237018,64.48,0.9375,0
1068,15016.6875,14.89,-31.0,3.0,57.0,32.29,0.237018,64.48,0.9375,0
1069,15016.703125,13.65,-31.0,3.0,57.0,32.29,0.237018,64.48,0.9375,0
1070,15016.71875,12.81,-31.0,3.0,57.0,32.29,0.237018,64.48,0.9375,0
1071,15016.734375,12.34,-31.0,3.0,57.0,32.29,0.237018,64.48,0.9375,0
1072,15016.75,12.06,-31.0,3.0,57.0,32.29,0.235737,64.48,0.9375,0
1073,15016.765625,11.83,-31.0,3.0,57.0,32.29,0.235737,64.48,0.9375,0
1074,15016.78125,11.53,-31.0,3.0,57.0,32.29,0.235737,64.48,0.9375,0
1075,15016.796875,11.17,-31.0,3.0,57.0,32.29,0.235737,64.48,0.9375,0
1076,15016.8125,10.82,-31.0,3.0,58.0,32.29,0.235737,64.48,0.9375,0
1077,15016.828125,10.51,-31.0,3.0,58.0,32.29,0.235737,64.48,0.9375,0
1078,15016.84375,10.18,-31.0,3.0,58.0,32.29,0.235737,64.48,0.9375,0
1079,15016.859375,9.66,-31.0,3.0,58.0,32.29,0.235737,64.48,0.9375,0
1080,15016.875,8.8,-31.0,3.0,57.0,32.29,0.235737,64.48,0.9375,0
1081,15016.890625,7.47,-31.0,3.0,57.0,32.29,0.235737,64.48,0.9375,0
1082,15016.90625,5.68,-31.0,3.0,57.0,32.29,0.235737,64.48,0.9375,0
1083,15016.921875,3.6,-31.0,3.0,57.0,32.29,0.235737,64.48,0.9375,0
1084,15016.9375,1.5,-31.0,3.0,57.0,32.29,0.235737,64.48,0.9375,0
1085,15016.953125,-0.34,-31.0,3.0,57.0,32.29,0.235737,64.48,0.9375,0
1086,15016.96875,-1.77,-31.0,3.0,57.0,32.29,0.235737,64.48,0.9375,0
1087,15016.984375,-2.8,-31.0,3.0,57.0,32.29,0.235737,64.48,0.9375,0
1088,15017.0,-3.67,-31.0,3.0,57.0,32.29,0.237018,64.37,0.9375,0
1089,15017.015625,-4.65,-31.0,3.0,57.0,32.29,0.237018,64.37,0.9375,0
1090,15017.03125,-6.01,-31.0,3.0,57.0,32.29,0.237018,64.37,0.9375,0
1091,15017.046875,-7.85,-31.0,3.0,57.0,32.29,0.237018,64.37,0.9375,0
1092,15017.0625,-10.13,-31.0,3.0,57.0,32.29,0.237018,64.37,0.9375,0
1093,15017.078125,-12.59,-31.0,3.0,57.0,32.29,0.237018,64.37,0.9375,0
1094,15017.09375,-14.92,-31.0,3.0,57.0,32.29,0.237018,64.37,0.9375,0
1095,15017.109375,-16.85,-31.0,3.0,57.0,32.29,0.237018,64.37,0.9375,0
1096,15017.125,-18.3,-31.0,3.0,57.0,32.29,0.237018,64.37,0.9375,0
1097,15017.140625,-19.42,-31.0,3.0,57.0,32.29,0.237018,64.37,0.9375,0
1098,15017.15625,-20.49,-31.0,3.0,57.0,32.29,0.237018,64.37,0.9375,0
1099,15017.171875,-21.92,-31.0,3.0,57.0,32.29,0.237018,64.37,0.9375,0
1100,15017.1875,-24.01,-31.0,3.0,57.0,32.29,0.237018,64.37,0.9375,0
1101,15017.203125,-26.88,-31.0,3.0,57.0,32.29,0.237018,64.37,0.9375,0
1102,15017.21875,-30.26,-31.0,3.0,57.0,32.29,0.237018,64.37,0.9375,0
1103,15017.234375,-33.53,-31.0,3.0,57.0,32.29,0.237018,64.37,0.9375,0
1104,15017.25,-35.82,-31.0,3.0,57.0,32.29,0.234455,64.37,0.9375,0
1105,15017.265625,-36.25,-31.0,3.0,57.0,32.29,0.234455,64.37,0.84375,0
1106,15017.28125,-34.19,-31.0,3.0,57.0,32.29,0.234455,64.37,0.84375,0
1107,15017.296875,-29.47,-31.0,3.0,57.0,32.29,0.234455,64.37,0.84375,0
1108,15017.3125,-22.5,-31.0,3.0,58.0,32.29,0.234455,64.37,0.84375,0
1109,15017.328125,-14.12,-31.0,3.0,58.0,32.29,0.234455,64.37,0.84375,0
1110,15017.34375,-5.4,-31.0,3.0,57.0,32.29,0.234455,64.37,0.84375,0
1111,15017.359375,2.58,-31.0,3.0,57.0,32.29,0.234455,64.37,0.84375,0
1112,15017.375,9.07,-31.0,3.0,57.0,32.29,0.234455,64.37,0.84375,0
1113,15017.390625,13.73,-31.0,3.0,57.0,32.29,0.234455,64.37,0.84375,0
1114,15017.40625,16.65,-31.0,3.0,57.0,32.29,0.234455,64.37,0.84375,0
1115,15017.421875,18.22,-31.0,3.0,57.0,32.29,0.234455,64.37,0.84375,0
1116,15017.4375,18.94,-31.0,3.0,57.0,32.29,0.234455,64.37,0.84375,0
1117,15017.453125,19.23,-31.0,3.0,57.0,32.29,0.234455,64.37,0.84375,0
1118,15017.46875,19.27,-31.0,3.0,57.0,32.29,0.234455,64.37,0.84375,0
1119,15017.484375,19.1,-31.0,3.0,57.0,32.29,0.234455,64.37,0.84375,0
1120,15017.5,18.6,-31.0,3.0,57.0,32.29,0.235737,64.37,0.84375,0
1121,15017.515625,17.66,-31.0,3.0,57.0,32.29,0.235737,64.37,0.84375,0
1122,15017.53125,16.32,-31.0,3.0,57.0,32.29,0.235737,64.37,0.84375,0
1123,15017.546875,14.76,-31.0,3.0,57.0,32.29,0.235737,64.37,0.84375,0
1124,15017.5625,13.23,-31.0,3.0,57.0,32.29,0.235737,64.37,0.84375,0
1125,15017.578125,11.94,-31.0,3.0,57.0,32.29,0.235737,64.37,0.84375,0
1126,15017.59375,11.0,-31.0,3.0,57.0,32.29,0.235737,64.37,0.84375,0
1127,15017.609375,10.37,-31.0,3.0,57.0,32.29,0.235737,64.37,0.84375,0
1128,15017.625,9.94,-31.0,3.0,57.0,32.29,0.235737,64.37,0.84375,0
1129,15017.640625,9.56,-31.0,3.0,57.0,32.29,0.235737,64.37,0.84375,0
1130,15017.65625,9.12,-31.0,3.0,57.0,32.29,0.235737,64.37,0.84375,0
1131,15017.671875,8.48,-31.0,3.0,57.0,32.29,0.235737,64.37,0.84375,0
1132,15017.6875,7.56,-31.0,3.0,57.0,32.29,0.235737,64.37,0.84375,0
1133,15017.703125,6.24,-31.0,3.0,57.0,32.29,0.235737,64.37,0.84375,0
1134,15017.71875,4.5,-31.0,3.0,58.0,32.29,0.235737,64.37,0.84375,0
1135,15017.734375,2.42,-31.0,3.0,58.0,32.29,0.235737,64.37,0.84375,0
1136,15017.75,0.17,-31.0,3.0,58.0,32.29,0.235737,64.37,0.84375,0
1137,15017.765625,-2.0,-31.0,3.0,58.0,32.29,0.235737,64.37,0.84375,0
1138,15017.78125,-3.91,-31.0,3.0,57.0,32.29,0.235737,64.37,0.84375,0
1139,15017.796875,-5.5,-31.0,3.0,57.0,32.29,0.235737,64.37,0.84375,0
1140,15017.8125,-6.92,-31.0,3.0,57.0,32.29,0.235737,64.37,0.84375,0
1141,15017.828125,-8.39,-31.0,3.0,57.0,32.29,0.235737,64.37,0.84375,0
1142,15017.84375,-10.13,-31.0,3.0,57.0,32.29,0.235737,64.37,0.84375,0
1143,15017.859375,-12.24,-31.0,3.0,57.0,32.29,0.235737,64.37,0.84375,0
1144,15017.875,-14.66,-31.0,3.0,58.0,32.29,0.235737,64.37,0.84375,0
1145,15017.890625,-17.18,-31.0,3.0,58.0,32.29,0.235737,64.37,0.84375,0
1146,15017.90625,-19.54,-31.0,3.0,57.0,32.29,0.235737,64.37,0.84375,0
1147,15017.921875,-21.58,-31.0,3.0,57.0,32.29,0.235737,64.37,0.84375,0
1148,15017.9375,-23.26,-31.0,3.0,57.0,32.29,0.235737,64.37,0.84375,0
1149,15017.953125,-24.75,-31.0,3.0,57.0,32.29,0.235737,64.37,0.84375,0
1150,15017.96875,-26.37,-31.0,3.0,57.0,32.29,0.235737,64.37,0.84375,0
1151,15017.984375,-28.47,-31.0,3.0,57.0,32.29,0.235737,64.37,0.84375,0
1152,15018.0,-31.23,-31.0,3.0,57.0,32.27,0.234455,64.25,0.84375,0
1153,15018.015625,-34.54,-31.0,3.0,57.0,32.27,0.234455,64.25,0.84375,0
1154,15018.03125,-37.82,-31.0,3.0,57.0,32.27,0.234455,64.25,0.84375,0
1155,15018.046875,-40.09,-31.0,3.0,57.0,32.27,0.234455,64.25,0.84375,0
1156,15018.0625,-40.25,-31.0,3.0,57.0,32.27,0.234455,64.25,0.796875,0
1157,15018.078125,-37.49,-31.0,3.0,57.0,32.27,0.234455,64.25,0.796875,0
1158,15018.09375,-31.57,-31.0,3.0,57.0,32.27,0.234455,64.25,0.796875,0
1159,15018.109375,-23.05,-31.0,3.0,57.0,32.27,0.234455,64.25,0.796875,0
1160,15018.125,-13.11,-31.0,3.0,57.0,32.27,0.234455,64.25,0.796875,0
1161,15018.140625,-3.19,-31.0,3.0,57.0,32.27,0.234455,64.25,0.796875,0
1162,15018.15625,5.47,-31.0,3.0,57.0,32.27,0.234455,64.25,0.796875,0
1163,15018.171875,12.19,-31.0,3.0,57.0,32.27,0.234455,64.25,0.796875,0
1164,15018.1875,16.96,-31.0,3.0,58.0,32.27,0.234455,64.25,0.796875,0
1165,15018.203125,20.22,-31.0,3.0,58.0,32.27,0.234455,64.25,0.796875,0
1166,15018.21875,22.56,-31.0,3.0,58.0,32.27,0.234455,64.25,0.796875,0
1167,15018.234375,24.5,-31.0,3.0,58.0,32.27,0.234455,64.25,0.796875,0
1168,15018.25,26.25,-31.0,3.0,57.0,32.27,0.234455,64.25,0.796875,0
1169,15018.265625,27.91,-31.0,3.0,57.0,32.27,0.234455,64.25,0.796875,0
1170,15018.28125,29.42,-31.0,3.0,57.0,32.27,0.234455,64.25,0.796875,0
1171,15018.296875,30.67,-31.0,3.0,57.0,32.27,0.234455,64.25,0.796875,0
1172,15018.3125,31.57,-31.0,3.0,57.0,32.27,0.234455,64.25,0.796875,0
1173,15018.328125,32.02,-31.0,3.0,57.0,32.27,0.234455,64.25,0.796875,0
1174,15018.34375,31.86,-31.0,3.0,58.0,32.27,0.234455,64.25,0.796875,0
1175,15018.359375,30.97,-31.0,3.0,58.0,32.27,0.234455,64.25,0.796875,0
1176,15018.375,29.26,-31.0,3.0,58.0,32.27,0.234455,64.25,0.796875,0
1177,15018.390625,26.84,-31.0,3.0,58.0,32.27,0.234455,64.25,0.796875,0
1178,15018.40625,23.98,-31.0,3.0,57.0,32.27,0.234455,64.25,0.796875,0
1179,15018.421875,21.16,-31.0,3.0,57.0,32.27,0.234455,64.25,0.796875,0
1180,15018.4375,18.78,-31.0,3.0,57.0,32.27,0.234455,64.25,0.796875,0
1181,15018.453125,17.09,-31.0,3.0,57.0,32.27,0.234455,64.25,0.796875,0
1182,15018.46875,16.08,-31.0,3.0,57.0,32.27,0.234455,64.25,0.796875,0
1183,15018.484375,15.49,-31.0,3.0,57.0,32.27,0.234455,64.25,0.796875,0
1184,15018.5,14.94,-31.0,3.0,57.0,32.27,0.233174,64.25,0.796875,0
1185,15018.515625,14.07,-31.0,3.0,57.0,32.27,0.233174,64.25,0.796875,0
1186,15018.53125,12.61,-31.0,3.0,57.0,32.27,0.233174,64.25,0.796875,0
1187,15018.546875,10.54,-31.0,3.0,57.0,32.27,0.233174,64.25,0.796875,0
1188,15018.5625,8.02,-31.0,3.0,57.0,32.27,0.233174,64.25,0.796875,0
1189,15018.578125,5.31,-31.0,3.0,57.0,32.27,0.233174,64.25,0.796875,0
1190,15018.59375,2.7,-31.0,3.0,57.0,32.27,0.233174,64.25,0.796875,0
1191,15018.609375,0.44,-31.0,3.0,57.0,32.27,0.233174,64.25,0.796875,0
1192,15018.625,-1.42,-31.0,3.0,57.0,32.27,0.233174,64.25,0.796875,0
1193,15018.640625,-3.01,-31.0,3.0,57.0,32.27,0.233174,64.25,0.796875,0
1194,15018.65625,-4.62,-31.0,3.0,57.0,32.27,0.233174,64.25,0.796875,0
1195,15018.671875,-6.59,-31.0,3.0,57.0,32.27,0.233174,64.25,0.796875,0
1196,15018.6875,-9.09,-31.0,3.0,57.0,32.27,0.233174,64.25,0.796875,0
1197,15018.703125,-12.03,-31.0,3.0,57.0,32.27,0.233174,64.25,0.796875,0
1198,15018.71875,-15.13,-31.0,4.0,58.0,32.27,0.233174,64.25,0.796875,0
1199,15018.734375,-18.04,-31.0,4.0,58.0,32.27,0.233174,64.25,0.796875,0
1200,15018.75,-20.53,-31.0,3.0,57.0,32.27,0.233174,64.25,0.796875,0
1201,15018.765625,-22.54,-31.0,3.0,57.0,32.27,0.233174,64.25,0.796875,0
1202,15018.78125,-24.22,-31.0,3.0,57.0,32.27,0.233174,64.25,0.796875,0
1203,15018.796875,-25.81,-31.0,3.0,57.0,32.27,0.233174,64.25,0.796875,0
1204,15018.8125,-27.65,-31.0,3.0,58.0,32.27,0.233174,64.25,0.796875,0
1205,15018.828125,-30.03,-31.0,3.0,58.0,32.27,0.233174,64.25,0.796875,0
1206,15018.84375,-33.13,-31.0,3.0,57.0,32.27,0.233174,64.25,0.796875,0
1207,15018.859375,-36.91,-31.0,3.0,57.0,32.27,0.233174,64.25,0.796875,0
1208,15018.875,-40.91,-31.0,3.0,57.0,32.27,0.233174,64.25,0.796875,0
1209,15018.890625,-44.29,-31.0,3.0,57.0,32.27,0.233174,64.25,0.796875,0
1210,15018.90625,-45.91,-31.0,3.0,57.0,32.27,0.233174,64.25,0.84375,0
1211,15018.921875,-44.66,-31.0,3.0,57.0,32.27,0.233174,64.25,0.84375,0
1212,15018.9375,-39.89,-31.0,3.0,57.0,32.27,0.233174,64.25,0.84375,0
1213,15018.953125,-31.75,-31.0,3.0,57.0,32.27,0.233174,64.25,0.84375,0
1214,15018.96875,-21.25,-31.0,3.0,58.0,32.27,0.233174,64.25,0.84375,0
1215,15018.984375,-9.89,-31.0,3.0,58.0,32.27,0.233174,64.25,0.84375,0
1216,15019.0,0.76,-30.0,3.0,57.0,32.27,0.233174,64.15,0.84375,0
1217,15019.015625,9.64,-30.0,3.0,57.0,32.27,0.233174,64.15,0.84375,0
1218,15019.03125,16.32,-30.0,3.0,57.0,32.27,0.233174,64.15,0.84375,0
1219,15019.046875,21.0,-30.0,3.0,57.0,32.27,0.233174,64.15,0.84375,0
1220,15019.0625,24.29,-31.0,3.0,57.0,32.27,0.233174,64.15,0.84375,0
1221,15019.078125,26.84,-31.0,3.0,57.0,32.27,0.233174,64.15,0.84375,0
1222,15019.09375,29.09,-31.0,3.0,58.0,32.27,0.233174,64.15,0.84375,0
1223,15019.109375,31.26,-31.0,3.0,58.0,32.27,0.233174,64.15,0.84375,0
1224,15019.125,33.36,-31.0,3.0,58.0,32.27,0.233174,64.15,0.84375,0
1225,15019.140625,35.26,-31.0,3.0,58.0,32.27,0.233174,64.15,0.84375,0
1226,15019.15625,36.81,-31.0,3.0,58.0,32.27,0.233174,64.15,0.84375,0
1227,15019.171875,37.83,-31.0,3.0,58.0,32.27,0.233174,64.15,0.84375,0
1228,15019.1875,38.16,-31.0,3.0,58.0,32.27,0.233174,64.15,0.84375,0
1229,15019.203125,37.66,-31.0,3.0,58.0,32.27,0.233174,64.15,0.84375,0
1230,15019.21875,36.29,-31.0,3.0,57.0,32.27,0.233174,64.15,0.84375,0
1231,15019.234375,34.1,-31.0,3.0,57.0,32.27,0.233174,64.15,0.84375,0
1232,15019.25,31.26,-31.0,3.0,57.0,32.27,0.231893,64.15,0.84375,0
1233,15019.265625,28.02,-31.0,3.0,57.0,32.27,0.231893,64.15,0.84375,0
1234,15019.28125,24.69,-31.0,3.0,57.0,32.27,0.231893,64.15,0.84375,0
1235,15019.296875,21.55,-31.0,3.0,57.0,32.27,0.231893,64.15,0.84375,0
1236,15019.3125,18.87,-31.0,3.0,57.0,32.27,0.231893,64.15,0.84375,0
1237,15019.328125,16.75,-31.0,3.0,57.0,32.27,0.231893,64.15,0.84375,0
1238,15019.34375,15.21,-31.0,3.0,57.0,32.27,0.231893,64.15,0.84375,0
1239,15019.359375,14.08,-31.0,3.0,57.0,32.27,0.231893,64.15,0.84375,0
1240,15019.375,13.09,-31.0,4.0,58.0,32.27,0.231893,64.15,0.84375,0
1241,15019.390625,11.94,-31.0,4.0,58.0,32.27,0.231893,64.15,0.84375,0
1242,15019.40625,10.38,-31.0,3.0,58.0,32.27,0.231893,64.15,0.84375,0
1243,15019.421875,8.31,-31.0,3.0,58.0,32.27,0.231893,64.15,0.84375,0
1244,15019.4375,5.81,-31.0,3.0,57.0,32.27,0.231893,64.15,0.84375,0
1245,15019.453125,3.07,-31.0,3.0,57.0,32.27,0.231893,64.15,0.84375,0
1246,15019.46875,0.33,-31.0,3.0,57.0,32.27,0.231893,64.15,0.84375,0
1247,15019.484375,-2.2,-31.0,3.0,57.0,32.27,0.231893,64.15,0.84375,0
1248,15019.5,-4.4,-31.0,3.0,57.0,32.27,0.231893,64.15,0.84375,0
1249,15019.515625,-6.27,-31.0,3.0,57.0,32.27,0.231893,64.15,0.84375,0
1250,15019.53125,-7.91,-31.0,3.0,57.0,32.27,0.231893,64.15,0.84375,0
1251,15019.546875,-9.43,-31.0,3.0,57.0,32.27,0.231893,64.15,0.84375,0
1252,15019.5625,-10.99,-31.0,3.0,58.0,32.27,0.231893,64.15,0.84375,0
1253,15019.578125,-12.72,-31.0,3.0,58.0,32.27,0.231893,64.15,0.84375,0
1254,15019.59375,-14.7,-31.0,3.0,57.0,32.27,0.231893,64.15,0.84375,0
1255,15019.609375,-16.91,-31.0,3.0,57.0,32.27,0.231893,64.15,0.84375,0
1256,15019.625,-19.22,-31.0,3.0,57.0,32.27,0.231893,64.15,0.84375,0
1257,15019.640625,-21.45,-31.0,3.0,57.0,32.27,0.231893,64.15,0.84375,0
1258,15019.65625,-23.41,-31.0,4.0,57.0,32.27,0.231893,64.15,0.84375,0
1259,15019.671875,-25.02,-31.0,4.0,57.0,32.27,0.231893,64.15,0.84375,0
1260,15019.6875,-26.34,-31.0,3.0,57.0,32.27,0.231893,64.15,0.84375,0
1261,15019.703125,-27.53,-31.0,3.0,57.0,32.27,0.231893,64.15,0.84375,0
1262,15019.71875,-28.88,-31.0,3.0,57.0,32.27,0.231893,64.15,0.84375,0
1263,15019.734375,-30.69,-31.0,3.0,57.0,32.27,0.231893,64.15,0.84375,0
1264,15019.75,-33.17,-31.0,3.0,58.0,32.27,0.231893,64.15,0.84375,0
1265,15019.765625,-36.39,-31.0,3.0,58.0,32.27,0.231893,64.15,0.84375,0
1266,15019.78125,-40.04,-31.0,3.0,57.0,32.27,0.231893,64.15,0.84375,0
1267,15019.796875,-43.41,-31.0,3.0,57.0,32.27,0.231893,64.15,0.84375,0
1268,15019.8125,-45.37,-31.0,3.0,57.0,32.27,0.231893,64.15,0.90625,0
1269,15019.828125,-44.76,-31.0,3.0,57.0,32.27,0.231893,64.15,0.90625,0
1270,15019.84375,-40.68,-31.0,3.0,57.0,32.27,0.231893,64.15,0.90625,0
1271,15019.859375,-32.99,-31.0,3.0,57.0,32.27,0.231893,64.15,0.90625,0
1272,15019.875,-22.39,-31.0,3.0,57.0,32.27,0.231893,64.15,0.90625,0
1273,15019.890625,-10.34,-31.0,3.0,57.0,32.27,0.231893,64.15,0.90625,0
1274,15019.90625,1.48,-31.0,3.0,57.0,32.27,0.231893,64.15,0.90625,0
1275,15019.921875,11.68,-31.0,3.0,57.0,32.27,0.231893,64.15,0.90625,0
1276,15019.9375,19.45,-31.0,3.0,57.0,32.27,0.231893,64.15,0.90625,0
1277,15019.953125,24.77,-31.0,3.0,57.0,32.27,0.231893,64.15,0.90625,0
1278,15019.96875,28.11,-31.0,3.0,57.0,32.27,0.231893,64.15,0.90625,0
1279,15019.984375,30.16,-31.0,3.0,57.0,32.27,0.231893,64.15,0.90625,0
1280,15020.0,31.58,-31.0,3.0,58.0,32.29,0.231893,64.07,0.90625,0
1281,15020.015625,32.78,-31.0,3.0,58.0,32.29,0.231893,64.07,0.90625,0
1282,15020.03125,33.95,-31.0,3.0,57.0,32.29,0.231893,64.07,0.90625,0
1283,15020.046875,35.07,-31.0,3.0,57.0,32.29,0.231893,64.07,0.90625,0
1284,15020.0625,36.03,-31.0,3.0,57.0,32.29,0.231893,64.07,0.90625,0
1285,15020.078125,36.61,-31.0,3.0,57.0,32.29,0.231893,64.07,0.90625,0
1286,15020.09375,36.62,-31.0,3.0,57.0,32.29,0.231893,64.07,0.90625,0
1287,15020.109375,35.89,-31.0,3.0,57.0,32.29,0.231893,64.07,0.90625,0
1288,15020.125,34.36,-31.0,3.0,57.0,32.29,0.231893,64.07,0.90625,0
1289,15020.140625,32.08,-31.0,3.0,57.0,32.29,0.231893,64.07,0.90625,0
1290,15020.15625,29.27,-31.0,3.0,57.0,32.29,0.231893,64.07,0.90625,0
1291,15020.171875,26.23,-31.0,3.0,57.0,32.29,0.231893,64.07,0.90625,0
1292,15020.1875,23.3,-31.0,3.0,57.0,32.29,0.231893,64.07,0.90625,0
1293,15020.203125,20.81,-31.0,3.0,57.0,32.29,0.231893,64.07,0.90625,0
1294,15020.21875,18.92,-31.0,3.0,57.0,32.29,0.231893,64.07,0.90625,0
1295,15020.234375,17.59,-31.0,3.0,57.0,32.29,0.231893,64.07,0.90625,0
1296,15020.25,16.64,-31.0,3.0,57.0,32.29,0.229331,64.07,0.90625,0
1297,15020.265625,15.79,-31.0,3.0,57.0,32.29,0.229331,64.07,0.90625,0
1298,15020.28125,14.77,-31.0,3.0,57.0,32.29,0.229331,64.07,0.90625,0
1299,15020.296875,13.46,-31.0,3.0,57.0,32.29,0.229331,64.07,0.90625,0
1300,15020.3125,11.95,-31.0,3.0,57.0,32.29,0.229331,64.07,0.90625,0
1301,15020.328125,10.39,-31.0,3.0,57.0,32.29,0.229331,64.07,0.90625,0
1302,15020.34375,8.9,-31.0,3.0,57.0,32.29,0.229331,64.07,0.90625,0
1303,15020.359375,7.5,-31.0,3.0,57.0,32.29,0.229331,64.07,0.90625,0
1304,15020.375,6.13,-31.0,3.0,57.0,32.29,0.229331,64.07,0.90625,0
1305,15020.390625,4.61,-31.0,3.0,57.0,32.29,0.229331,64.07,0.90625,0
1306,15020.40625,2.85,-31.0,3.0,57.0,32.29,0.229331,64.07,0.90625,0
1307,15020.421875,0.88,-31.0,3.0,57.0,32.29,0.229331,64.07,0.90625,0
1308,15020.4375,-1.18,-31.0,3.0,58.0,32.29,0.229331,64.07,0.90625,0
1309,15020.453125,-3.17,-31.0,3.0,58.0,32.29,0.229331,64.07,0.90625,0
1310,15020.46875,-5.0,-31.0,4.0,57.0,32.29,0.229331,64.07,0.90625,0
1311,15020.484375,-6.71,-31.0,4.0,57.0,32.29,0.229331,64.07,0.90625,0
1312,15020.5,-8.42,-31.0,3.0,58.0,32.29,0.231893,64.07,0.90625,0
1313,15020.515625,-10.3,-31.0,3.0,58.0,32.29,0.231893,64.07,0.90625,0
1314,15020.53125,-12.45,-31.0,3.0,57.0,32.29,0.231893,64.07,0.90625,0
1315,15020.546875,-14.85,-31.0,3.0,57.0,32.29,0.231893,64.07,0.90625,0
1316,15020.5625,-17.34,-31.0,3.0,57.0,32.29,0.231893,64.07,0.90625,0
1317,15020.578125,-19.78,-31.0,3.0,57.0,32.29,0.231893,64.07,0.90625,0
1318,15020.59375,-21.98,-31.0,3.0,58.0,32.29,0.231893,64.07,0.90625,0
1319,15020.609375,-23.85,-31.0,3.0,58.0,32.29,0.231893,64.07,0.90625,0
1320,15020.625,-25.37,-31.0,3.0,57.0,32.29,0.231893,64.07,0.90625,0
1321,15020.640625,-26.62,-31.0,3.0,57.0,32.29,0.231893,64.07,0.90625,0
1322,15020.65625,-27.77,-31.0,3.0,57.0,32.29,0.231893,64.07,0.90625,0
1323,15020.671875,-29.07,-31.0,3.0,57.0,32.29,0.231893,64.07,0.90625,0
1324,15020.6875,-30.79,-31.0,3.0,58.0,32.29,0.231893,64.07,0.90625,0
1325,15020.703125,-33.04,-31.0,3.0,58.0,32.29,0.231893,64.07,0.90625,0
1326,15020.71875,-35.74,-31.0,3.0,57.0,32.29,0.231893,64.07,0.90625,0
1327,15020.734375,-38.37,-31.0,3.0,57.0,32.29,0.231893,64.07,0.90625,0
1328,15020.75,-40.1,-31.0,3.0,57.0,32.29,0.231893,64.07,0.9375,0
1329,15020.765625,-39.93,-31.0,3.0,57.0,32.29,0.231893,64.07,0.9375,0
1330,15020.78125,-37.03,-31.0,3.0,57.0,32.29,0.231893,64.07,0.9375,0
1331,15020.796875,-31.08,-31.0,3.0,57.0,32.29,0.231893,64.07,0.9375,0
1332,15020.8125,-22.43,-31.0,3.0,57.0,32.29,0.231893,64.07,0.9375,0
1333,15020.828125,-12.1,-31.0,3.0,57.0,32.29,0.231893,64.07,0.9375,0
1334,15020.84375,-1.46,-31.0,3.0,58.0,32.29,0.231893,64.07,0.9375,0
1335,15020.859375,8.17,-31.0,3.0,58.0,32.29,0.231893,64.07,0.9375,0
1336,15020.875,15.91,-31.0,3.0,57.0,32.29,0.231893,64.07,0.9375,0
1337,15020.890625,21.46,-31.0,3.0,57.0,32.29,0.231893,64.07,0.9375,0
1338,15020.90625,25.04,-31.0,3.0,57.0,32.29,0.231893,64.07,0.9375,0
1339,15020.921875,27.16,-31.0,3.0,57.0,32.29,0.231893,64.07,0.9375,0
1340,15020.9375,28.31,-31.0,3.0,57.0,32.29,0.231893,64.07,0.9375,0
1341,15020.953125,28.88,-31.0,3.0,57.0,32.29,0.231893,64.07,0.9375,0
1342,15020.96875,29.03,-31.0,3.0,57.0,32.29,0.231893,64.07,0.9375,0
1343,15020.984375,28.83,-31.0,3.0,57.0,32.29,0.231893,64.07,0.9375,0
1344,15021.0,28.31,-31.0,3.0,57.0,32.29,0.230612,64.0,0.9375,0
1345,15021.015625,27.6,-31.0,3.0,57.0,32.29,0.230612,64.0,0.9375,0
1346,15021.03125,26.77,-31.0,3.0,57.0,32.29,0.230612,64.0,0.9375,0
1347,15021.046875,25.91,-31.0,3.0,57.0,32.29,0.230612,64.0,0.9375,0
1348,15021.0625,25.02,-31.0,3.0,57.0,32.29,0.230612,64.0,0.9375,0
1349,15021.078125,23.97,-31.0,3.0,57.0,32.29,0.230612,64.0,0.9375,0
1350,15021.09375,22.61,-31.0,3.0,57.0,32.29,0.230612,64.0,0.9375,0
1351,15021.109375,20.9,-31.0,3.0,57.0,32.29,0.230612,64.0,0.9375,0
1352,15021.125,18.91,-31.0,3.0,58.0,32.29,0.230612,64.0,0.9375,0
1353,15021.140625,16.86,-31.0,3.0,58.0,32.29,0.230612,64.0,0.9375,0
1354,15021.15625,15.01,-31.0,3.0,57.0,32.29,0.230612,64.0,0.9375,0
1355,15021.171875,13.58,-31.0,3.0,57.0,32.29,0.230612,64.0,0.9375,0
1356,15021.1875,12.53,-31.0,4.0,58.0,32.29,0.230612,64.0,0.9375,0
1357,15021.203125,11.72,-31.0,4.0,58.0,32.29,0.230612,64.0,0.9375,0
1358,15021.21875,10.85,-31.0,3.0,57.0,32.29,0.230612,64.0,0.9375,0
1359,15021.234375,9.67,-31.0,3.0,57.0,32.29,0.230612,64.0,0.9375,0
1360,15021.25,8.05,-31.0,3.0,58.0,32.29,0.231893,64.0,0.9375,0
1361,15021.265625,6.06,-31.0,3.0,58.0,32.29,0.231893,64.0,0.9375,0
1362,15021.28125,3.87,-31.0,4.0,58.0,32.29,0.231893,64.0,0.9375,0
1363,15021.296875,1.75,-31.0,4.0,58.0,32.29,0.231893,64.0,0.9375,0
1364,15021.3125,-0.13,-31.0,3.0,57.0,32.29,0.231893,64.0,0.9375,0
1365,15021.328125,-1.71,-31.0,3.0,57.0,32.29,0.231893,64.0,0.9375,0
1366,15021.34375,-3.11,-31.0,3.0,57.0,32.29,0.231893,64.0,0.9375,0
1367,15021.359375,-4.58,-31.0,3.0,57.0,32.29,0.231893,64.0,0.9375,0
1368,15021.375,-6.31,-31.0,3.0,58.0,32.29,0.231893,64.0,0.9375,0
1369,15021.390625,-8.42,-31.0,3.0,58.0,32.29,0.231893,64.0,0.9375,0
1370,15021.40625,-10.79,-31.0,3.0,57.0,32.29,0.231893,64.0,0.9375,0
1371,15021.421875,-13.17,-31.0,3.0,57.0,32.29,0.231893,64.0,0.9375,0
1372,15021.4375,-15.3,-31.0,3.0,58.0,32.29,0.231893,64.0,0.9375,0
1373,15021.453125,-17.02,-31.0,3.0,58.0,32.29,0.231893,64.0,0.9375,0
1374,15021.46875,-18.33,-31.0,3.0,57.0,32.29,0.231893,64.0,0.9375,0
1375,15021.484375,-19.4,-31.0,3.0,57.0,32.29,0.231893,64.0,0.9375,0
1376,15021.5,-20.48,-31.0,4.0,57.0,32.29,0.231893,64.0,0.9375,0
1377,15021.515625,-21.79,-31.0,4.0,57.0,32.29,0.231893,64.0,0.9375,0
1378,15021.53125,-23.52,-31.0,3.0,57.0,32.29,0.231893,64.0,0.9375,0
1379,15021.546875,-25.7,-31.0,3.0,57.0,32.29,0.231893,64.0,0.9375,0
1380,15021.5625,-28.22,-31.0,3.0,57.0,32.29,0.231893,64.0,0.9375,0
1381,15021.578125,-30.69,-31.0,3.0,57.0,32.29,0.231893,64.0,0.9375,0
1382,15021.59375,-32.55,-31.0,3.0,58.0,32.29,0.231893,64.0,0.9375,0
1383,15021.609375,-33.09,-31.0,3.0,58.0,32.29,0.231893,64.0,0.859375,0
1384,15021.625,-31.63,-31.0,3.0,57.0,32.29,0.231893,64.0,0.859375,0
1385,15021.640625,-27.84,-31.0,3.0,57.0,32.29,0.231893,64.0,0.859375,0
1386,15021.65625,-21.83,-31.0,4.0,57.0,32.29,0.231893,64.0,0.859375,0
1387,15021.671875,-14.22,-31.0,4.0,57.0,32.29,0.231893,64.0,0.859375,0
1388,15021.6875,-5.93,-31.0,3.0,57.0,32.29,0.231893,64.0,0.859375,0
1389,15021.703125,2.04,-31.0,3.0,57.0,32.29,0.231893,64.0,0.859375,0
1390,15021.71875,8.92,-31.0,3.0,58.0,32.29,0.231893,64.0,0.859375,0
1391,15021.734375,14.24,-31.0,3.0,58.0,32.29,0.231893,64.0,0.859375,0
1392,15021.75,17.86,-31.0,3.0,58.0,32.29,0.229331,64.0,0.859375,0
1393,15021.765625,19.96,-31.0,3.0,58.0,32.29,0.229331,64.0,0.859375,0
1394,15021.78125,20.86,-31.0,3.0,57.0,32.29,0.229331,64.0,0.859375,0
1395,15021.796875,20.95,-31.0,3.0,57.0,32.29,0.229331,64.0,0.859375,0
1396,15021.8125,20.54,-31.0,3.0,57.0,32.29,0.229331,64.0,0.859375,0
1397,15021.828125,19.84,-31.0,3.0,57.0,32.29,0.229331,64.0,0.859375,0
1398,15021.84375,18.92,-31.0,3.0,57.0,32.29,0.229331,64.0,0.859375,0
1399,15021.859375,17.79,-31.0,3.0,57.0,32.29,0.229331,64.0,0.859375,0
1400,15021.875,16.47,-31.0,3.0,58.0,32.29,0.229331,64.0,0.859375,0
1401,15021.890625,15.06,-31.0,3.0,58.0,32.29,0.229331,64.0,0.859375,0
1402,15021.90625,13.72,-31.0,3.0,58.0,32.29,0.229331,64.0,0.859375,0
1403,15021.921875,12.66,-31.0,3.0,58.0,32.29,0.229331,64.0,0.859375,0
1404,15021.9375,12.0,-31.0,3.0,57.0,32.29,0.229331,64.0,0.859375,0
1405,15021.953125,11.75,-31.0,3.0,57.0,32.29,0.229331,64.0,0.859375,0
1406,15021.96875,11.78,-31.0,3.0,58.0,32.29,0.229331,64.0,0.859375,0
1407,15021.984375,11.85,-31.0,3.0,58.0,32.29,0.229331,64.0,0.859375,0
1408,15022.0,11.73,-31.0,3.0,57.0,32.27,0.229331,63.98,0.859375,0
1409,15022.015625,11.28,-31.0,3.0,57.0,32.27,0.229331,63.98,0.859375,0
1410,15022.03125,10.45,-31.0,3.0,58.0,32.27,0.229331,63.98,0.859375,0
1411,15022.046875,9.26,-31.0,3.0,58.0,32.27,0.229331,63.98,0.859375,0
1412,15022.0625,7.75,-31.0,3.0,57.0,32.27,0.229331,63.98,0.859375,0
1413,15022.078125,5.96,-31.0,3.0,57.0,32.27,0.229331,63.98,0.859375,0
1414,15022.09375,3.92,-31.0,4.0,57.0,32.27,0.229331,63.98,0.859375,0
1415,15022.109375,1.69,-31.0,4.0,57.0,32.27,0.229331,63.98,0.859375,0
1416,15022.125,-0.67,-31.0,3.0,57.0,32.27,0.229331,63.98,0.859375,0
1417,15022.140625,-3.08,-31.0,3.0,57.0,32.27,0.229331,63.98,0.859375,0
1418,15022.15625,-5.46,-31.0,3.0,57.0,32.27,0.229331,63.98,0.859375,0
1419,15022.171875,-7.79,-31.0,3.0,57.0,32.27,0.229331,63.98,0.859375,0
1420,15022.1875,-10.12,-30.0,3.0,57.0,32.27,0.229331,63.98,0.859375,0
1421,15022.203125,-12.49,-30.0,3.0,57.0,32.27,0.229331,63.98,0.859375,0
1422,15022.21875,-14.9,-30.0,3.0,57.0,32.27,0.229331,63.98,0.859375,0
1423,15022.234375,-17.29,-30.0,3.0,57.0,32.27,0.229331,63.98,0.859375,0
1424,15022.25,-19.53,-31.0,3.0,58.0,32.27,0.229331,63.98,0.859375,0
1425,15022.265625,-21.53,-31.0,3.0,58.0,32.27,0.229331,63.98,0.859375,0
1426,15022.28125,-23.33,-31.0,3.0,58.0,32.27,0.229331,63.98,0.859375,0
1427,15022.296875,-25.07,-31.0,3.0,58.0,32.27,0.229331,63.98,0.859375,0
1428,15022.3125,-27.02,-31.0,3.0,58.0,32.27,0.229331,63.98,0.859375,0
1429,15022.328125,-29.44,-31.0,3.0,58.0,32.27,0.229331,63.98,0.859375,0
1430,15022.34375,-32.37,-31.0,3.0,58.0,32.27,0.229331,63.98,0.859375,0
1431,15022.359375,-35.6,-31.0,3.0,58.0,32.27,0.229331,63.98,0.859375,0
1432,15022.375,-38.53,-31.0,3.0,57.0,32.27,0.229331,63.98,0.859375,0
1433,15022.390625,-40.31,-31.0,3.0,57.0,32.27,0.229331,63.98,0.78125,0
1434,15022.40625,-40.1,-31.0,3.0,57.0,32.27,0.229331,63.98,0.78125,0
1435,15022.421875,-37.33,-31.0,3.0,57.0,32.27,0.229331,63.98,0.78125,0
1436,15022.4375,-31.87,-31.0,3.0,57.0,32.27,0.229331,63.98,0.78125,0
1437,15022.453125,-24.23,-31.0,3.0,57.0,32.27,0.229331,63.98,0.78125,0
1438,15022.46875,-15.39,-31.0,3.0,57.0,32.27,0.229331,63.98,0.78125,0
1439,15022.484375,-6.53,-31.0,3.0,57.0,32.27,0.229331,63.98,0.78125,0
1440,15022.5,1.28,-31.0,3.0,57.0,32.27,0.228049,63.98,0.78125,0
1441,15022.515625,7.43,-31.0,3.0,57.0,32.27,0.228049,63.98,0.78125,0
1442,15022.53125,11.83,-31.0,3.0,57.0,32.27,0.228049,63.98,0.78125,0
1443,15022.546875,14.85,-31.0,3.0,57.0,32.27,0.228049,63.98,0.78125,0
1444,15022.5625,17.03,-31.0,3.0,58.0,32.27,0.228049,63.98,0.78125,0
1445,15022.578125,18.8,-31.0,3.0,58.0,32.27,0.228049,63.98,0.78125,0
1446,15022.59375,20.37,-31.0,4.0,57.0,32.27,0.228049,63.98,0.78125,0
1447,15022.609375,21.68,-31.0,4.0,57.0,32.27,0.228049,63.98,0.78125,0
1448,15022.625,22.55,-31.0,3.0,57.0,32.27,0.228049,63.98,0.78125,0
1449,15022.640625,22.85,-31.0,3.0,57.0,32.27,0.228049,63.98,0.78125,0
1450,15022.65625,22.6,-31.0,3.0,57.0,32.27,0.228049,63.98,0.78125,0
1451,15022.671875,21.94,-31.0,3.0,57.0,32.27,0.228049,63.98,0.78125,0
1452,15022.6875,21.06,-30.0,4.0,57.0,32.27,0.228049,63.98,0.78125,0
1453,15022.703125,20.11,-30.0,4.0,57.0,32.27,0.228049,63.98,0.78125,0
1454,15022.71875,19.12,-31.0,4.0,58.0,32.27,0.228049,63.98,0.78125,0
1455,15022.734375,18.05,-31.0,4.0,58.0,32.27,0.228049,63.98,0.78125,0
1456,15022.75,16.92,-30.0,3.0,57.0,32.27,0.229331,63.98,0.78125,0
1457,15022.765625,15.75,-30.0,3.0,57.0,32.27,0.229331,63.98,0.78125,0
1458,15022.78125,14.64,-31.0,4.0,58.0,32.27,0.229331,63.98,0.78125,0
1459,15022.796875,13.65,-31.0,4.0,58.0,32.27,0.229331,63.98,0.78125,0
1460,15022.8125,12.71,-31.0,3.0,57.0,32.27,0.229331,63.98,0.78125,0
1461,15022.828125,11.63,-31.0,3.0,57.0,32.27,0.229331,63.98,0.78125,0
1462,15022.84375,10.22,-31.0,4.0,58.0,32.27,0.229331,63.98,0.78125,0
1463,15022.859375,8.35,-31.0,4.0,58.0,32.27,0.229331,63.98,0.78125,0
1464,15022.875,6.08,-31.0,3.0,58.0,32.27,0.229331,63.98,0.78125,0
1465,15022.890625,3.65,-31.0,3.0,58.0,32.27,0.229331,63.98,0.78125,0
1466,15022.90625,1.31,-30.0,3.0,57.0,32.27,0.229331,63.98,0.78125,0
1467,15022.921875,-0.75,-30.0,3.0,57.0,32.27,0.229331,63.98,0.78125,0
1468,15022.9375,-2.57,-31.0,4.0,58.0,32.27,0.229331,63.98,0.78125,0
1469,15022.953125,-4.33,-31.0,4.0,58.0,32.27,0.229331,63.98,0.78125,0
1470,15022.96875,-6.28,-31.0,3.0,57.0,32.27,0.229331,63.98,0.78125,0
1471,15022.984375,-8.56,-31.0,3.0,57.0,32.27,0.229331,63.98,0.78125,0
1472,15023.0,-11.16,-31.0,3.0,57.0,32.29,0.228049,64.02,0.78125,0
1473,15023.015625,-13.9,-31.0,3.0,57.0,32.29,0.228049,64.02,0.78125,0
1474,15023.03125,-16.57,-31.0,4.0,57.0,32.29,0.228049,64.02,0.78125,0
1475,15023.046875,-18.97,-31.0,4.0,57.0,32.29,0.228049,64.02,0.78125,0
1476,15023.0625,-20.99,-31.0,3.0,57.0,32.29,0.228049,64.02,0.78125,0
1477,15023.078125,-22.69,-31.0,3.0,57.0,32.29,0.228049,64.02,0.78125,0
1478,15023.09375,-24.22,-31.0,4.0,58.0,32.29,0.228049,64.02,0.78125,0
1479,15023.109375,-25.88,-31.0,4.0,58.0,32.29,0.228049,64.02,0.78125,0
1480,15023.125,-27.98,-31.0,3.0,58.0,32.29,0.228049,64.02,0.78125,0
1481,15023.140625,-30.77,-31.0,3.0,58.0,32.29,0.228049,64.02,0.78125,0
1482,15023.15625,-34.12,-31.0,4.0,57.0,32.29,0.228049,64.02,0.78125,0
1483,15023.171875,-37.53,-31.0,4.0,57.0,32.29,0.228049,64.02,0.78125,0
1484,15023.1875,-40.06,-31.0,3.0,57.0,32.29,0.228049,64.02,0.78125,0
1485,15023.203125,-40.56,-31.0,3.0,57.0,32.29,0.228049,64.02,0.8125,0
1486,15023.21875,-38.17,-30.0,3.0,57.0,32.29,0.228049,64.02,0.8125,0
1487,15023.234375,-32.55,-30.0,3.0,57.0,32.29,0.228049,64.02,0.8125,0
1488,15023.25,-24.18,-31.0,4.0,57.0,32.29,0.229331,64.02,0.8125,0
1489,15023.265625,-14.17,-31.0,4.0,57.0,32.29,0.229331,64.02,0.8125,0
1490,15023.28125,-3.9,-31.0,3.0,57.0,32.29,0.229331,64.02,0.8125,0
1491,15023.296875,5.4,-31.0,3.0,57.0,32.29,0.229331,64.02,0.8125,0
1492,15023.3125,12.95,-31.0,4.0,58.0,32.29,0.229331,64.02,0.8125,0
1493,15023.328125,18.56,-31.0,4.0,58.0,32.29,0.229331,64.02,0.8125,0
1494,15023.34375,22.52,-31.0,3.0,58.0,32.29,0.229331,64.02,0.8125,0
1495,15023.359375,25.32,-31.0,3.0,58.0,32.29,0.229331,64.02,0.8125,0
1496,15023.375,27.52,-31.0,3.0,58.0,32.29,0.229331,64.02,0.8125,0
1497,15023.390625,29.48,-31.0,3.0,58.0,32.29,0.229331,64.02,0.8125,0
1498,15023.40625,31.41,-31.0,3.0,57.0,32.29,0.229331,64.02,0.8125,0
1499,15023.421875,33.33,-31.0,3.0,57.0,32.29,0.229331,64.02,0.8125,0
1500,15023.4375,35.11,-31.0,3.0,57.0,32.29,0.229331,64.02,0.8125,0
1501,15023.453125,36.54,-31.0,3.0,57.0,32.29,0.229331,64.02,0.8125,0
1502,15023.46875,37.34,-31.0,4.0,57.0,32.29,0.229331,64.02,0.8125,0
1503,15023.484375,37.3,-31.0,4.0,57.0,32.29,0.229331,64.02,0.8125,0
1504,15023.5,36.22,-30.0,3.0,58.0,32.29,0.228049,64.02,0.8125,0
1505,15023.515625,34.1,-30.0,3.0,58.0,32.29,0.228049,64.02,0.8125,0
1506,15023.53125,31.09,-31.0,3.0,57.0,32.29,0.228049,64.02,0.8125,0
1507,15023.546875,27.5,-31.0,3.0,57.0,32.29,0.228049,64.02,0.8125,0
1508,15023.5625,23.82,-31.0,3.0,58.0,32.29,0.228049,64.02,0.8125,0
1509,15023.578125,20.49,-31.0,3.0,58.0,32.29,0.228049,64.02,0.8125,0
1510,15023.59375,17.83,-31.0,3.0,57.0,32.29,0.228049,64.02,0.8125,0
1511,15023.609375,15.93,-31.0,3.0,57.0,32.29,0.228049,64.02,0.8125,0
1512,15023.625,14.59,-31.0,3.0,57.0,32.29,0.228049,64.02,0.8125,0
1513,15023.640625,13.41,-31.0,3.0,57.0,32.29,0.228049,64.02,0.8125,0
1514,15023.65625,12.04,-30.0,3.0,57.0,32.29,0.228049,64.02,0.8125,0
1515,15023.671875,10.19,-30.0,3.0,57.0,32.29,0.228049,64.02,0.8125,0
1516,15023.6875,7.86,-31.0,3.0,58.0,32.29,0.228049,64.02,0.8125,0
1517,15023.703125,5.27,-31.0,3.0,58.0,32.29,0.228049,64.02,0.8125,0
1518,15023.71875,2.73,-31.0,3.0,57.0,32.29,0.228049,64.02,0.8125,0
1519,15023.734375,0.44,-31.0,3.0,57.0,32.29,0.228049,64.02,0.8125,0
1520,15023.75,-1.58,-31.0,3.0,58.0,32.29,0.226768,64.02,0.8125,0
1521,15023.765625,-3.53,-31.0,3.0,58.0,32.29,0.226768,64.02,0.8125,0
1522,15023.78125,-5.7,-31.0,3.0,57.0,32.29,0.226768,64.02,0.8125,0
1523,15023.796875,-8.26,-31.0,3.0,57.0,32.29,0.226768,64.02,0.8125,0
1524,15023.8125,-11.26,-31.0,3.0,57.0,32.29,0.226768,64.02,0.8125,0
1525,15023.828125,-14.54,-31.0,3.0,57.0,32.29,0.226768,64.02,0.8125,0
1526,15023.84375,-17.8,-31.0,3.0,57.0,32.29,0.226768,64.02,0.8125,0
1527,15023.859375,-20.76,-31.0,3.0,57.0,32.29,0.226768,64.02,0.8125,0
1528,15023.875,-23.23,-31.0,3.0,57.0,32.29,0.226768,64.02,0.8125,0
1529,15023.890625,-25.15,-31.0,3.0,57.0,32.29,0.226768,64.02,0.8125,0
1530,15023.90625,-26.6,-31.0,3.0,57.0,32.29,0.226768,64.02,0.8125,0
1531,15023.921875,-27.78,-31.0,3.0,57.0,32.29,0.226768,64.02,0.8125,0
1532,15023.9375,-29.0,-31.0,3.0,57.0,32.29,0.226768,64.02,0.8125,0
1533,15023.953125,-30.57,-31.0,3.0,57.0,32.29,0.226768,64.02,0.8125,0
1534,15023.96875,-32.76,-31.0,3.0,57.0,32.29,0.226768,64.02,0.8125,0
1535,15023.984375,-35.56,-31.0,3.0,57.0,32.29,0.226768,64.02,0.8125,0
1536,15024.0,-38.53,-31.0,3.0,57.0,32.27,0.226768,64.07,0.8125,0
1537,15024.015625,-40.78,-31.0,3.0,57.0,32.27,0.226768,64.07,0.8125,0
1538,15024.03125,-41.19,-31.0,3.0,57.0,32.27,0.226768,64.07,0.828125,0
1539,15024.046875,-38.77,-31.0,3.0,57.0,32.27,0.226768,64.07,0.828125,0
1540,15024.0625,-33.08,-31.0,3.0,57.0,32.27,0.226768,64.07,0.828125,0
1541,15024.078125,-24.44,-31.0,3.0,57.0,32.27,0.226768,64.07,0.828125,0
1542,15024.09375,-13.9,-31.0,3.0,57.0,32.27,0.226768,64.07,0.828125,0
1543,15024.109375,-2.89,-31.0,3.0,57.0,32.27,0.226768,64.07,0.828125,0
1544,15024.125,7.29,-31.0,4.0,57.0,32.27,0.226768,64.07,0.828125,0
1545,15024.140625,15.74,-31.0,4.0,57.0,32.27,0.226768,64.07,0.828125,0
1546,15024.15625,22.2,-31.0,3.0,58.0,32.27,0.226768,64.07,0.828125,0
1547,15024.171875,26.87,-31.0,3.0,58.0,32.27,0.226768,64.07,0.828125,0
1548,15024.1875,30.21,-31.0,3.0,57.0,32.27,0.226768,64.07,0.828125,0
1549,15024.203125,32.72,-31.0,3.0,57.0,32.27,0.226768,64.07,0.828125,0
1550,15024.21875,34.76,-31.0,3.0,57.0,32.27,0.226768,64.07,0.828125,0
1551,15024.234375,36.52,-31.0,3.0,57.0,32.27,0.226768,64.07,0.828125,0
1552,15024.25,37.99,-31.0,3.0,57.0,32.27,0.225487,64.07,0.828125,0
1553,15024.265625,39.07,-31.0,3.0,57.0,32.27,0.225487,64.07,0.828125,0
1554,15024.28125,39.56,-31.0,3.0,57.0,32.27,0.225487,64.07,0.828125,0
1555,15024.296875,39.31,-31.0,3.0,57.0,32.27,0.225487,64.07,0.828125,0
1556,15024.3125,38.24,-31.0,3.0,57.0,32.27,0.225487,64.07,0.828125,0
1557,15024.328125,36.42,-31.0,3.0,57.0,32.27,0.225487,64.07,0.828125,0
1558,15024.34375,33.97,-31.0,3.0,57.0,32.27,0.225487,64.07,0.828125,0
1559,15024.359375,31.13,-31.0,3.0,57.0,32.27,0.225487,64.07,0.828125,0
1560,15024.375,28.11,-31.0,3.0,57.0,32.27,0.225487,64.07,0.828125,0
1561,15024.390625,25.05,-31.0,3.0,57.0,32.27,0.225487,64.07,0.828125,0
1562,15024.40625,22.16,-31.0,3.0,57.0,32.27,0.225487,64.07,0.828125,0
1563,15024.421875,19.57,-31.0,3.0,57.0,32.27,0.225487,64.07,0.828125,0
1564,15024.4375,17.43,-31.0,3.0,57.0,32.27,0.225487,64.07,0.828125,0
1565,15024.453125,15.82,-31.0,3.0,57.0,32.27,0.225487,64.07,0.828125,0
1566,15024.46875,14.65,-31.0,3.0,57.0,32.27,0.225487,64.07,0.828125,0
1567,15024.484375,13.7,-31.0,3.0,57.0,32.27,0.225487,64.07,0.828125,0
1568,15024.5,12.68,-31.0,3.0,58.0,32.27,0.226768,64.07,0.828125,0
1569,15024.515625,11.37,-31.0,3.0,58.0,32.27,0.226768,64.07,0.828125,0
1570,15024.53125,9.66,-31.0,3.0,58.0,32.27,0.226768,64.07,0.828125,0
1571,15024.546875,7.59,-31.0,3.0,58.0,32.27,0.226768,64.07,0.828125,0
1572,15024.5625,5.29,-31.0,3.0,57.0,32.27,0.226768,64.07,0.828125,0
1573,15024.578125,2.93,-31.0,3.0,57.0,32.27,0.226768,64.07,0.828125,0
1574,15024.59375,0.59,-31.0,3.0,57.0,32.27,0.226768,64.07,0.828125,0
1575,15024.609375,-1.62,-31.0,3.0,57.0,32.27,0.226768,64.07,0.828125,0
1576,15024.625,-3.67,-31.0,3.0,58.0,32.27,0.226768,64.07,0.828125,0
1577,15024.640625,-5.47,-31.0,3.0,58.0,32.27,0.226768,64.07,0.828125,0
1578,15024.65625,-7.0,-31.0,3.0,57.0,32.27,0.226768,64.07,0.828125,0
1579,15024.671875,-8.28,-31.0,3.0,57.0,32.27,0.226768,64.07,0.828125,0
1580,15024.6875,-9.45,-31.0,3.0,57.0,32.27,0.226768,64.07,0.828125,0
1581,15024.703125,-10.73,-31.0,3.0,57.0,32.27,0.226768,64.07,0.828125,0
1582,15024.71875,-12.3,-31.0,3.0,57.0,32.27,0.226768,64.07,0.828125,0
1583,15024.734375,-14.19,-31.0,3.0,57.0,32.27,0.226768,64.07,0.828125,0
1584,15024.75,-16.22,-31.0,3.0,57.0,32.27,0.225487,64.07,0.828125,0
1585,15024.765625,-18.13,-31.0,3.0,57.0,32.27,0.225487,64.07,0.828125,0
1586,15024.78125,-19.63,-31.0,3.0,57.0,32.27,0.225487,64.07,0.828125,0
1587,15024.796875,-20.59,-31.0,3.0,57.0,32.27,0.225487,64.07,0.828125,0
1588,15024.8125,-21.09,-31.0,3.0,57.0,32.27,0.225487,64.07,0.828125,0
1589,15024.828125,-21.35,-31.0,3.0,57.0,32.27,0.225487,64.07,0.828125,0
1590,15024.84375,-21.73,-31.0,3.0,57.0,32.27,0.225487,64.07,0.828125,0
1591,15024.859375,-22.55,-31.0,3.0,57.0,32.27,0.225487,64.07,0.828125,0
1592,15024.875,-24.03,-31.0,3.0,57.0,32.27,0.225487,64.07,0.828125,0
1593,15024.890625,-26.2,-31.0,3.0,57.0,32.27,0.225487,64.07,0.828125,0
1594,15024.90625,-28.84,-31.0,3.0,57.0,32.27,0.225487,64.07,0.828125,0
1595,15024.921875,-31.42,-31.0,3.0,57.0,32.27,0.225487,64.07,0.828125,0
1596,15024.9375,-33.11,-31.0,3.0,57.0,32.27,0.225487,64.07,0.90625,0
1597,15024.953125,-32.97,-31.0,3.0,57.0,32.27,0.225487,64.07,0.90625,0
1598,15024.96875,-30.25,-31.0,3.0,57.0,32.27,0.225487,64.07,0.90625,0
1599,15024.984375,-24.7,-31.0,3.0,57.0,32.27,0.225487,64.07,0.90625,0
1600,15025.0,-16.68,-31.0,3.0,57.0,32.29,0.226768,64.12,0.90625,0
1601,15025.015625,-7.15,-31.0,3.0,57.0,32.29,0.226768,64.12,0.90625,0
1602,15025.03125,2.66,-31.0,4.0,58.0,32.29,0.226768,64.12,0.90625,0
1603,15025.046875,11.53,-31.0,4.0,58.0,32.29,0.226768,64.12,0.90625,0
1604,15025.0625,18.68,-31.0,3.0,57.0,32.29,0.226768,64.12,0.90625,0
1605,15025.078125,23.8,-31.0,3.0,57.0,32.29,0.226768,64.12,0.90625,0
1606,15025.09375,26.97,-31.0,3.0,57.0,32.29,0.226768,64.12,0.90625,0
1607,15025.109375,28.54,-31.0,3.0,57.0,32.29,0.226768,64.12,0.90625,0
1608,15025.125,28.85,-31.0,3.0,57.0,32.29,0.226768,64.12,0.90625,0
1609,15025.140625,28.21,-31.0,3.0,57.0,32.29,0.226768,64.12,0.90625,0
1610,15025.15625,26.84,-31.0,3.0,57.0,32.29,0.226768,64.12,0.90625,0
1611,15025.171875,24.92,-31.0,3.0,57.0,32.29,0.226768,64.12,0.90625,0
1612,15025.1875,22.68,-31.0,3.0,57.0,32.29,0.226768,64.12,0.90625,0
1613,15025.203125,20.39,-31.0,3.0,57.0,32.29,0.226768,64.12,0.90625,0
1614,15025.21875,18.27,-31.0,3.0,58.0,32.29,0.226768,64.12,0.90625,0
1615,15025.234375,16.45,-31.0,3.0,58.0,32.29,0.226768,64.12,0.90625,0
1616,15025.25,14.98,-31.0,3.0,57.0,32.29,0.225487,64.12,0.90625,0
1617,15025.265625,13.78,-31.0,3.0,57.0,32.29,0.225487,64.12,0.90625,0
1618,15025.28125,12.78,-31.0,3.0,57.0,32.29,0.225487,64.12,0.90625,0
1619,15025.296875,11.87,-31.0,3.0,57.0,32.29,0.225487,64.12,0.90625,0
1620,15025.3125,11.01,-31.0,3.0,58.0,32.29,0.225487,64.12,0.90625,0
1621,15025.328125,10.18,-31.0,3.0,58.0,32.29,0.225487,64.12,0.90625,0
1622,15025.34375,9.34,-31.0,3.0,58.0,32.29,0.225487,64.12,0.90625,0
1623,15025.359375,8.42,-31.0,3.0,58.0,32.29,0.225487,64.12,0.90625,0
1624,15025.375,7.32,-31.0,3.0,57.0,32.29,0.225487,64.12,0.90625,0
1625,15025.390625,5.96,-31.0,3.0,57.0,32.29,0.225487,64.12,0.90625,0
1626,15025.40625,4.32,-31.0,3.0,57.0,32.29,0.225487,64.12,0.90625,0
1627,15025.421875,2.44,-31.0,3.0,57.0,32.29,0.225487,64.12,0.90625,0
1628,15025.4375,0.49,-31.0,3.0,58.0,32.29,0.225487,64.12,0.90625,0
1629,15025.453125,-1.41,-31.0,3.0,58.0,32.29,0.225487,64.12,0.90625,0
1630,15025.46875,-3.1,-31.0,3.0,57.0,32.29,0.225487,64.12,0.90625,0
1631,15025.484375,-4.54,-31.0,3.0,57.0,32.29,0.225487,64.12,0.90625,0
1632,15025.5,-5.84,-31.0,3.0,57.0,32.29,0.225487,64.12,0.90625,0
1633,15025.515625,-7.1,-31.0,3.0,57.0,32.29,0.225487,64.12,0.90625,0
1634,15025.53125,-8.52,-31.0,4.0,57.0,32.29,0.225487,64.12,0.90625,0
1635,15025.546875,-10.22,-31.0,4.0,57.0,32.29,0.225487,64.12,0.90625,0
1636,15025.5625,-12.25,-31.0,3.0,57.0,32.29,0.225487,64.12,0.90625,0
1637,15025.578125,-14.51,-31.0,3.0,57.0,32.29,0.225487,64.12,0.90625,0
1638,15025.59375,-16.86,-30.0,3.0,57.0,32.29,0.225487,64.12,0.90625,0
1639,15025.609375,-19.08,-30.0,3.0,57.0,32.29,0.225487,64.12,0.90625,0
1640,15025.625,-21.05,-31.0,3.0,57.0,32.29,0.225487,64.12,0.90625,0
1641,15025.640625,-22.74,-31.0,3.0,57.0,32.29,0.225487,64.12,0.90625,0
1642,15025.65625,-24.24,-31.0,4.0,57.0,32.29,0.225487,64.12,0.90625,0
1643,15025.671875,-25.78,-31.0,4.0,57.0,32.29,0.225487,64.12,0.90625,0
1644,15025.6875,-27.63,-30.0,3.0,57.0,32.29,0.225487,64.12,0.90625,0
1645,15025.703125,-29.93,-30.0,3.0,57.0,32.29,0.225487,64.12,0.90625,0
1646,15025.71875,-32.55,-31.0,3.0,57.0,32.29,0.225487,64.12,0.90625,0
1647,15025.734375,-35.04,-31.0,3.0,57.0,32.29,0.225487,64.12,0.90625,0
1648,15025.75,-36.63,-31.0,3.0,57.0,32.29,0.225487,64.12,0.8125,0
1649,15025.765625,-36.49,-31.0,3.0,57.0,32.29,0.225487,64.12,0.8125,0
1650,15025.78125,-33.99,-31.0,3.0,57.0,32.29,0.225487,64.12,0.8125,0
1651,15025.796875,-28.98,-31.0,3.0,57.0,32.29,0.225487,64.12,0.8125,0
1652,15025.8125,-21.87,-31.0,3.0,57.0,32.29,0.225487,64.12,0.8125,0
1653,15025.828125,-13.6,-31.0,3.0,57.0,32.29,0.225487,64.12,0.8125,0
1654,15025.84375,-5.28,-31.0,3.0,57.0,32.29,0.225487,64.12,0.8125,0
1655,15025.859375,2.1,-31.0,3.0,57.0,32.29,0.225487,64.12,0.8125,0
1656,15025.875,7.92,-31.0,3.0,57.0,32.29,0.225487,64.12,0.8125,0
1657,15025.890625,12.08,-31.0,3.0,57.0,32.29,0.225487,64.12,0.8125,0
1658,15025.90625,14.81,-31.0,3.0,57.0,32.29,0.225487,64.12,0.8125,0
1659,15025.921875,16.58,-31.0,3.0,57.0,32.29,0.225487,64.12,0.8125,0
1660,15025.9375,17.79,-31.0,3.0,57.0,32.29,0.225487,64.12,0.8125,0
1661,15025.953125,18.69,-31.0,3.0,57.0,32.29,0.225487,64.12,0.8125,0
1662,15025.96875,19.32,-31.0,3.0,57.0,32.29,0.225487,64.12,0.8125,0
1663,15025.984375,19.6,-31.0,3.0,57.0,32.29,0.225487,64.12,0.8125,0
1664,15026.0,19.36,-31.0,3.0,57.0,32.29,0.226768,64.03,0.8125,0
1665,15026.015625,18.52,-31.0,3.0,57.0,32.29,0.226768,64.03,0.8125,0
1666,15026.03125,17.14,-31.0,3.0,58.0,32.29,0.226768,64.03,0.8125,0
1667,15026.046875,15.4,-31.0,3.0,58.0,32.29,0.226768,64.03,0.8125,0
1668,15026.0625,13.55,-31.0,3.0,57.0,32.29,0.226768,64.03,0.8125,0
1669,15026.078125,11.81,-31.0,3.0,57.0,32.29,0.226768,64.03,0.8125,0
1670,15026.09375,10.27,-31.0,3.0,57.0,32.29,0.226768,64.03,0.8125,0
1671,15026.109375,8.92,-31.0,3.0,57.0,32.29,0.226768,64.03,0.8125,0
1672,15026.125,7.64,-31.0,3.0,57.0,32.29,0.226768,64.03,0.8125,0
1673,15026.140625,6.35,-31.0,3.0,57.0,32.29,0.226768,64.03,0.8125,0
1674,15026.15625,5.06,-31.0,3.0,57.0,32.29,0.226768,64.03,0.8125,0
1675,15026.171875,3.83,-31.0,3.0,57.0,32.29,0.226768,64.03,0.8125,0
1676,15026.1875,2.71,-31.0,3.0,58.0,32.29,0.226768,64.03,0.8125,0
1677,15026.203125,1.67,-31.0,3.0,58.0,32.29,0.226768,64.03,0.8125,0
1678,15026.21875,0.63,-31.0,3.0,57.0,32.29,0.226768,64.03,0.8125,0
1679,15026.234375,-0.59,-31.0,3.0,57.0,32.29,0.226768,64.03,0.8125,0
1680,15026.25,-2.05,-31.0,3.0,57.0,32.29,0.226768,64.03,0.8125,0
1681,15026.265625,-3.76,-31.0,3.0,57.0,32.29,0.226768,64.03,0.8125,0
1682,15026.28125,-5.63,-31.0,3.0,57.0,32.29,0.226768,64.03,0.8125,0
1683,15026.296875,-7.55,-31.0,3.0,57.0,32.29,0.226768,64.03,0.8125,0
1684,15026.3125,-9.49,-31.0,3.0,58.0,32.29,0.226768,64.03,0.8125,0
1685,15026.328125,-11.43,-31.0,3.0,58.0,32.29,0.226768,64.03,0.8125,0
1686,15026.34375,-13.38,-31.0,3.0,58.0,32.29,0.226768,64.03,0.8125,0
1687,15026.359375,-15.27,-31.0,3.0,58.0,32.29,0.226768,64.03,0.8125,0
1688,15026.375,-16.99,-31.0,4.0,57.0,32.29,0.226768,64.03,0.8125,0
1689,15026.390625,-18.44,-31.0,4.0,57.0,32.29,0.226768,64.03,0.8125,0
1690,15026.40625,-19.62,-31.0,3.0,57.0,32.29,0.226768,64.03,0.8125,0
1691,15026.421875,-20.64,-31.0,3.0,57.0,32.29,0.226768,64.03,0.8125,0
1692,15026.4375,-21.69,-31.0,3.0,58.0,32.29,0.226768,64.03,0.8125,0
1693,15026.453125,-23.08,-31.0,3.0,58.0,32.29,0.226768,64.03,0.8125,0
1694,15026.46875,-24.97,-31.0,3.0,58.0,32.29,0.226768,64.03,0.8125,0
1695,15026.484375,-27.41,-31.0,3.0,58.0,32.29,0.226768,64.03,0.8125,0
1696,15026.5,-30.13,-31.0,3.0,58.0,32.29,0.226768,64.03,0.8125,0
1697,15026.515625,-32.63,-31.0,3.0,58.0,32.29,0.226768,64.03,0.8125,0
1698,15026.53125,-34.14,-31.0,3.0,57.0,32.29,0.226768,64.03,0.78125,0
1699,15026.546875,-33.91,-31.0,3.0,57.0,32.29,0.226768,64.03,0.78125,0
1700,15026.5625,-31.39,-31.0,3.0,57.0,32.29,0.226768,64.03,0.78125,0
1701,15026.578125,-26.5,-31.0,3.0,57.0,32.29,0.226768,64.03,0.78125,0
1702,15026.59375,-19.7,-31.0,3.0,57.0,32.29,0.226768,64.03,0.78125,0
1703,15026.609375,-11.83,-31.0,3.0,57.0,32.29,0.226768,64.03,0.78125,0
1704,15026.625,-3.88,-31.0,3.0,58.0,32.29,0.226768,64.03,0.78125,0
1705,15026.640625,3.35,-31.0,3.0,58.0,32.29,0.226768,64.03,0.78125,0
1706,15026.65625,9.47,-31.0,3.0,58.0,32.29,0.226768,64.03,0.78125,0
1707,15026.671875,14.47,-31.0,3.0,58.0,32.29,0.226768,64.03,0.78125,0
1708,15026.6875,18.57,-31.0,3.0,57.0,32.29,0.226768,64.03,0.78125,0
1709,15026.703125,22.03,-31.0,3.0,57.0,32.29,0.226768,64.03,0.78125,0
1710,15026.71875,25.04,-31.0,3.0,57.0,32.29,0.226768,64.03,0.78125,0
1711,15026.734375,27.65,-31.0,3.0,57.0,32.29,0.226768,64.03,0.78125,0
1712,15026.75,29.86,-31.0,4.0,57.0,32.29,0.226768,64.03,0.78125,0
1713,15026.765625,31.61,-31.0,4.0,57.0,32.29,0.226768,64.03,0.78125,0
1714,15026.78125,32.87,-31.0,3.0,58.0,32.29,0.226768,64.03,0.78125,0
1715,15026.796875,33.57,-31.0,3.0,58.0,32.29,0.226768,64.03,0.78125,0
1716,15026.8125,33.62,-31.0,4.0,57.0,32.29,0.226768,64.03,0.78125,0
1717,15026.828125,32.91,-31.0,4.0,57.0,32.29,0.226768,64.03,0.78125,0
1718,15026.84375,31.44,-31.0,3.0,57.0,32.29,0.226768,64.03,0.78125,0
1719,15026.859375,29.31,-31.0,3.0,57.0,32.29,0.226768,64.03,0.78125,0
1720,15026.875,26.76,-31.0,3.0,57.0,32.29,0.226768,64.03,0.78125,0
1721,15026.890625,24.1,-31.0,3.0,57.0,32.29,0.226768,64.03,0.78125,0
1722,15026.90625,21.61,-31.0,3.0,58.0,32.29,0.226768,64.03,0.78125,0
1723,15026.921875,19.44,-31.0,3.0,58.0,32.29,0.226768,64.03,0.78125,0
1724,15026.9375,17.65,-30.0,4.0,57.0,32.29,0.226768,64.03,0.78125,0
1725,15026.953125,16.15,-30.0,4.0,57.0,32.29,0.226768,64.03,0.78125,0
1726,15026.96875,14.8,-31.0,3.0,57.0,32.29,0.226768,64.03,0.78125,0
1727,15026.984375,13.48,-31.0,3.0,57.0,32.29,0.226768,64.03,0.78125,0
1728,15027.0,12.08,-31.0,3.0,57.0,32.29,0.224206,63.97,0.78125,0
1729,15027.015625,10.54,-31.0,3.0,57.0,32.29,0.224206,63.97,0.78125,0
1730,15027.03125,8.86,-31.0,4.0,57.0,32.29,0.224206,63.97,0.78125,0
1731,15027.046875,7.05,-31.0,4.0,57.0,32.29,0.224206,63.97,0.78125,0
1732,15027.0625,5.1,-31.0,3.0,57.0,32.29,0.224206,63.97,0.78125,0
1733,15027.078125,2.94,-31.0,3.0,57.0,32.29,0.224206,63.97,0.78125,0
1734,15027.09375,0.52,-31.0,3.0,57.0,32.29,0.224206,63.97,0.78125,0
1735,15027.109375,-2.2,-31.0,3.0,57.0,32.29,0.224206,63.97,0.78125,0
1736,15027.125,-5.17,-31.0,3.0,57.0,32.29,0.224206,63.97,0.78125,0
1737,15027.140625,-8.25,-31.0,3.0,57.0,32.29,0.224206,63.97,0.78125,0
1738,15027.15625,-11.24,-31.0,3.0,57.0,32.29,0.224206,63.97,0.78125,0
1739,15027.171875,-14.0,-31.0,3.0,57.0,32.29,0.224206,63.97,0.78125,0
1740,15027.1875,-16.4,-31.0,3.0,58.0,32.29,0.224206,63.97,0.78125,0
1741,15027.203125,-18.43,-31.0,3.0,58.0,32.29,0.224206,63.97,0.78125,0
1742,15027.21875,-20.1,-31.0,4.0,57.0,32.29,0.224206,63.97,0.78125,0
1743,15027.234375,-21.52,-31.0,4.0,57.0,32.29,0.224206,63.97,0.78125,0
1744,15027.25,-22.89,-31.0,4.0,57.0,32.29,0.225487,63.97,0.78125,0
1745,15027.265625,-24.47,-31.0,4.0,57.0,32.29,0.225487,63.97,0.78125,0
1746,15027.28125,-26.57,-31.0,3.0,58.0,32.29,0.225487,63.97,0.78125,0
1747,15027.296875,-29.35,-31.0,3.0,58.0,32.29,0.225487,63.97,0.78125,0
1748,15027.3125,-32.61,-31.0,3.0,57.0,32.29,0.225487,63.97,0.78125,0
1749,15027.328125,-35.72,-31.0,3.0,57.0,32.29,0.225487,63.97,0.78125,0
1750,15027.34375,-37.69,-30.0,3.0,58.0,32.29,0.225487,63.97,0.8125,0
1751,15027.359375,-37.48,-30.0,3.0,58.0,32.29,0.225487,63.97,0.8125,0
1752,15027.375,-34.43,-31.0,3.0,58.0,32.29,0.225487,63.97,0.8125,0
1753,15027.390625,-28.53,-31.0,3.0,58.0,32.29,0.225487,63.97,0.8125,0
